,ID,task,block,trial,fiksacja3,fiksacja3_dur,fiksacja,fiksacja_dur,stimulus_type,stimulus,duration_type,duration,maska,maska_dur,fiksacja2,fiksacja2_dur,beh_response,response_dur,button,accuracy,accuracy_RT,pas_response,pas_response_dur,PAS,PAS_RT
0,dc1_01,low,1,2,12.0558,3.0095,15.0653,1.7399,sn3,16.8052,dur2,0.047,16.8522,0.2469,17.0991,2.0102,19.1211,1.5165,54.0,0.0,262.4,20.6494,1.4459,4.0,499.2
1,dc1_01,low,1,4,31.1591,2.0103,33.1694,1.7399,mn7,34.9093,dur1,0.0117,34.921,0.2469,35.1679,2.0103,37.1899,1.5165,54.0,0.0,510.0,38.7182,1.4812,4.0,397.6
2,dc1_01,low,1,5,40.2112,2.0102,42.2214,1.7399,sc1,43.9613,dur2,0.047,44.0083,0.2469,44.2552,2.0103,46.2772,1.5165,44.0,1.0,457.1,47.8055,1.446,4.0,479.4
3,dc1_01,low,1,6,49.2632,1.011,50.2742,1.7399,mn7,52.0141,dur2,0.047,52.0611,0.2469,52.308,6.0073,58.327,1.5165,54.0,0.0,1453.6,59.8553,1.446,4.0,1358.9
4,dc1_01,low,1,7,61.313,1.011,62.324,1.7399,mc1,64.0639,dur3,0.0823,64.1462,0.2469,64.3931,2.0102,66.4151,1.5165,54.0,1.0,1153.3,67.9433,1.4108,4.0,195.3
5,dc1_01,low,1,8,69.3658,2.0103,71.3761,1.7399,sc9,73.116,dur1,0.0117,73.1277,0.2469,73.3746,4.0087,77.3951,1.5165,44.0,1.0,279.4,78.9234,1.4812,1.0,255.6
6,dc1_01,low,1,9,80.4164,3.0095,83.4259,1.7399,sc1,85.1658,dur1,0.0117,85.1775,0.2469,85.4244,2.0102,87.4464,1.5165,44.0,1.0,285.1,88.9747,1.4812,1.0,192.0
7,dc1_01,low,1,11,99.5197,3.0095,102.5292,1.7399,sc7,104.2691,dur1,0.0117,104.2808,0.2469,104.5277,2.0103,106.5497,1.5165,51.0,0.0,297.2,108.078,1.4812,3.0,252.1
8,dc1_01,low,1,12,109.571,1.011,110.582,1.7399,sc3,112.3219,dur2,0.047,112.3689,0.2469,112.6158,6.0072,118.6348,1.5165,44.0,1.0,362.3,120.1631,1.4459,2.0,259.5
9,dc1_01,low,1,13,121.6208,1.011,122.6318,1.7399,sn3,124.3717,dur1,0.0117,124.3834,0.2469,124.6303,2.0103,126.6523,1.5165,41.0,1.0,450.6,128.1806,1.4812,1.0,231.7
10,dc1_01,low,1,14,129.6736,2.0103,131.6839,1.7398,mc1,133.4237,dur1,0.0118,133.4355,0.2469,133.6824,6.0072,139.7014,1.5165,44.0,1.0,511.9,141.2297,1.4812,2.0,933.1
11,dc1_01,low,1,15,142.7226,2.0103,144.7329,1.7399,sn9,146.4728,dur4,0.1528,146.6256,0.2469,146.8725,2.0102,148.8945,1.5165,41.0,1.0,375.3,150.4228,1.3401,4.0,249.2
12,dc1_01,low,1,16,151.7629,1.011,152.7739,1.7399,mc7,154.5138,dur2,0.047,154.5608,0.2469,154.8077,4.0088,158.8282,1.5165,44.0,1.0,325.2,160.3565,1.3402,1.0,254.6
13,dc1_01,low,1,17,161.6967,3.0095,164.7062,1.7399,mc7,166.4461,dur1,0.0117,166.4578,0.2469,166.7047,2.0103,168.7267,1.5165,44.0,1.0,315.0,170.255,1.3401,1.0,221.3
14,dc1_01,low,1,19,180.4944,1.011,181.5054,1.7398,sn3,183.2452,dur3,0.0823,183.3275,0.2469,183.5744,2.0103,185.5964,1.5165,41.0,1.0,314.1,187.1247,1.3402,3.0,333.7
15,dc1_01,low,1,20,188.4649,1.011,189.4759,1.7399,mc3,191.2158,dur4,0.1528,191.3686,0.2468,191.6154,2.0103,193.6375,1.5165,44.0,1.0,372.6,195.1657,1.3402,4.0,262.4
16,dc1_01,low,1,21,196.5059,2.0103,198.5162,1.7398,mn3,200.256,dur1,0.0118,200.2678,0.2469,200.5147,2.0102,202.5367,1.5165,41.0,1.0,443.3,204.0649,1.3402,1.0,225.7
17,dc1_01,low,1,22,205.4051,1.011,206.4161,1.7399,mn1,208.156,dur1,0.0118,208.1678,0.2468,208.4146,2.0103,210.4366,1.5166,54.0,0.0,570.4,211.9649,1.3402,2.0,345.3
18,dc1_01,low,1,24,227.2006,3.0095,230.2101,1.7398,mc1,231.9499,dur2,0.0471,231.997,0.2468,232.2438,2.0103,234.2659,1.5165,44.0,1.0,494.6,235.7941,1.3402,1.0,349.3
19,dc1_01,low,1,25,237.1343,2.0103,239.1446,1.7398,mc7,240.8844,dur4,0.1529,241.0373,0.2468,241.2841,2.0103,243.3062,1.5165,44.0,1.0,304.2,244.8344,1.3402,4.0,338.4
20,dc1_01,low,1,26,246.1746,3.0095,249.1841,1.7399,sn1,250.924,dur4,0.1528,251.0768,0.2469,251.3237,2.0102,253.3457,1.5165,41.0,1.0,291.8,254.874,1.3401,4.0,293.2
21,dc1_01,low,1,29,277.0103,3.0095,280.0198,1.7399,sc7,281.7597,dur2,0.047,281.8067,0.2469,282.0536,2.0103,284.0756,1.5165,44.0,1.0,234.1,285.6039,1.3402,3.0,390.6
22,dc1_01,low,1,30,286.9441,2.0102,288.9543,1.7399,mn3,290.6942,dur2,0.047,290.7412,0.2469,290.9881,2.0103,293.0101,1.5165,41.0,1.0,460.2,294.5384,1.3401,2.0,649.2
23,dc1_01,low,1,31,295.8785,1.0111,296.8896,1.7398,mn9,298.6294,dur1,0.0118,298.6412,0.2469,298.8881,2.0102,300.9101,1.5165,41.0,1.0,486.8,302.4383,1.3402,2.0,283.0
24,dc1_01,low,1,32,303.7785,3.0095,306.788,1.7399,mc9,308.5279,dur4,0.1528,308.6807,0.2469,308.9276,2.0103,310.9496,1.5165,44.0,1.0,197.4,312.4779,1.3402,4.0,496.1
25,dc1_01,low,1,33,313.8181,3.0095,316.8276,1.7398,sc9,318.5674,dur2,0.0471,318.6145,0.2468,318.8613,2.0103,320.8834,1.5165,51.0,0.0,339.6,322.4116,1.3402,1.0,243.5
26,dc1_01,low,1,35,333.6503,2.0102,335.6605,1.7399,mn9,337.4004,dur2,0.047,337.4474,0.2469,337.6943,2.0103,339.7163,1.5165,41.0,1.0,356.6,341.2446,1.3401,2.0,269.0
27,dc1_01,low,1,36,342.5847,1.0111,343.5958,1.7398,sn7,345.3356,dur4,0.1529,345.4885,0.2468,345.7353,2.0103,347.7573,1.5166,41.0,1.0,267.9,349.2856,1.3402,4.0,197.1
28,dc1_01,low,1,37,350.6258,3.0095,353.6353,1.7399,sc3,355.3752,dur1,0.0117,355.3869,0.2469,355.6338,6.0073,361.6528,1.5165,51.0,0.0,432.9,363.1811,1.3402,1.0,342.2
29,dc1_01,low,1,38,364.5213,2.0102,366.5315,1.7399,mc9,368.2714,dur1,0.0118,368.2832,0.2468,368.53,2.0103,370.552,1.5165,44.0,1.0,341.8,372.0803,1.3402,1.0,282.3
30,dc1_01,low,1,39,373.4205,2.0102,375.4307,1.7399,sc1,377.1706,dur3,0.0823,377.2529,0.2469,377.4998,4.0087,381.5203,1.5165,44.0,1.0,228.3,383.0486,1.3401,1.0,259.6
31,dc1_01,low,1,40,384.3887,3.0096,387.3983,1.7398,mc9,389.1381,dur3,0.0823,389.2204,0.2469,389.4673,2.0102,391.4893,1.5165,44.0,1.0,319.3,393.0176,1.3401,4.0,803.5
32,dc1_01,low,1,41,394.3577,1.0111,395.3688,1.7398,sn9,397.1086,dur2,0.047,397.1556,0.2469,397.4025,2.0103,399.4245,1.5166,41.0,1.0,285.0,400.9528,1.3402,1.0,451.2
33,dc1_01,low,1,42,402.293,3.0095,405.3025,1.7399,sn7,407.0424,dur2,0.047,407.0894,0.2469,407.3363,2.0102,409.3583,1.5165,41.0,1.0,301.8,410.8865,1.3402,3.0,383.7
34,dc1_01,low,1,44,422.1252,2.0102,424.1354,1.7399,mn3,425.8753,dur4,0.1528,426.0281,0.2469,426.275,6.0073,432.294,1.5166,51.0,1.0,1372.5,433.8223,1.3402,4.0,658.9
35,dc1_01,low,1,47,452.9609,2.0103,454.9712,1.7399,mn1,456.7111,dur3,0.0822,456.7933,0.2469,457.0402,6.0073,463.0592,1.5166,41.0,1.0,365.4,464.5875,1.3402,1.0,301.8
36,dc1_01,low,1,48,465.9277,2.0102,467.9379,1.7399,mn1,469.6778,dur2,0.047,469.7248,0.2469,469.9717,2.0103,471.9937,1.5165,54.0,0.0,437.7,473.522,1.3402,1.0,801.9
37,dc1_01,low,1,49,474.8622,3.0095,477.8717,1.7399,sc1,479.6116,dur4,0.1528,479.7644,0.2469,480.0113,4.0087,484.0318,1.5165,44.0,1.0,310.3,485.56,1.3402,4.0,195.2
38,dc1_01,low,1,50,486.9002,3.0095,489.9097,1.7399,sn7,491.6496,dur3,0.0823,491.7319,0.2469,491.9788,2.0102,494.0008,1.5165,41.0,1.0,437.6,495.529,1.3402,3.0,625.0
39,dc1_01,low,1,51,496.8692,3.0095,499.8787,1.7399,mc3,501.6186,dur2,0.047,501.6656,0.2469,501.9125,2.0103,503.9345,1.5165,44.0,1.0,320.2,505.4628,1.3402,4.0,865.4
40,dc1_01,low,1,52,506.803,2.0102,508.8132,1.7399,sn1,510.5531,dur2,0.047,510.6001,0.2469,510.847,2.0102,512.869,1.5165,54.0,0.0,595.2,514.3973,1.3401,4.0,599.0
41,dc1_01,low,1,53,515.7374,3.0096,518.747,1.7398,sn9,520.4868,dur3,0.0823,520.5691,0.2469,520.816,4.0088,524.8365,1.5165,54.0,0.0,702.0,526.3648,1.3401,1.0,550.4
42,dc1_01,low,1,54,527.7049,2.0103,529.7152,1.7399,sc3,531.4551,dur4,0.1528,531.6079,0.2469,531.8548,2.0102,533.8768,1.5165,44.0,1.0,582.9,535.4051,1.3401,4.0,748.3
43,dc1_01,low,1,55,536.7452,1.011,537.7562,1.7399,mc7,539.4961,dur3,0.0823,539.5784,0.2469,539.8253,2.0102,541.8473,1.5165,44.0,1.0,301.0,543.3756,1.3401,3.0,336.1
44,dc1_01,low,1,56,544.7157,2.0103,546.726,1.7399,mn9,548.4659,dur3,0.0823,548.5482,0.2468,548.795,2.0103,550.8171,1.5165,41.0,1.0,529.6,552.3453,1.3402,2.0,273.1
45,dc1_01,low,1,57,553.6855,1.011,554.6965,1.7399,mn7,556.4364,dur4,0.1528,556.5892,0.2469,556.8361,4.0087,560.8566,1.5165,41.0,1.0,445.0,562.3849,1.3401,3.0,282.2
46,dc1_01,low,1,58,563.725,1.011,564.736,1.7399,sc7,566.4759,dur4,0.1528,566.6287,0.2469,566.8756,2.0103,568.8976,1.5165,44.0,1.0,231.9,570.4259,1.3402,4.0,586.6
47,dc1_01,low,1,60,581.6645,3.0096,584.6741,1.7398,mn1,586.4139,dur4,0.1528,586.5667,0.2469,586.8136,6.0073,592.8326,1.5166,41.0,1.0,483.6,594.3609,1.3402,3.0,360.7
48,dc1_01,low,1,61,595.7011,2.0103,597.7114,1.7398,mn9,599.4512,dur4,0.1528,599.604,0.2469,599.8509,2.0103,601.8729,1.5165,41.0,1.0,427.2,603.4012,1.3402,3.0,347.0
49,dc1_01,low,1,62,604.7414,3.0095,607.7509,1.7399,sn3,609.4908,dur4,0.1528,609.6436,0.2469,609.8905,2.0102,611.9125,1.5165,41.0,1.0,332.7,613.4407,1.3402,4.0,684.1
50,dc1_01,low,1,63,614.7809,1.011,615.7919,1.7399,sn1,617.5318,dur1,0.0118,617.5436,0.2468,617.7904,2.0103,619.8124,1.5166,54.0,0.0,269.1,621.3407,1.3402,1.0,503.2
51,dc1_01,low,1,64,622.6809,3.0095,625.6904,1.7399,mc9,627.4303,dur2,0.047,627.4773,0.2469,627.7242,2.0102,629.7462,1.5165,51.0,0.0,407.1,631.2745,1.3401,2.0,592.6
52,dc1_01,low,1,65,632.6146,2.0103,634.6249,1.7399,sc7,636.3648,dur3,0.0822,636.447,0.2469,636.6939,2.0103,638.7159,1.5165,44.0,1.0,268.2,640.2442,1.3402,2.0,611.0
53,dc1_01,low,1,66,641.5844,1.011,642.5954,1.7399,mn7,644.3353,dur3,0.0823,644.4176,0.2468,644.6644,2.0103,646.6864,1.5165,41.0,1.0,693.0,648.2147,1.3402,1.0,246.5
54,dc1_01,low,1,68,657.4548,3.0096,660.4644,1.7398,mc1,662.2042,dur4,0.1529,662.3571,0.2468,662.6039,2.0103,664.6259,1.5166,44.0,1.0,332.1,666.1542,1.3402,4.0,592.2
55,dc1_01,low,1,69,667.4944,1.011,668.5054,1.7399,sn1,670.2453,dur3,0.0823,670.3276,0.2468,670.5744,4.0088,674.595,1.5165,54.0,0.0,487.9,676.1232,1.3402,4.0,876.0
56,dc1_01,low,1,71,685.3634,2.0102,687.3736,1.7399,mc3,689.1135,dur1,0.0117,689.1252,0.2469,689.3721,2.0103,691.3941,1.5165,44.0,1.0,462.9,692.9224,1.3402,4.0,406.6
57,dc1_01,low,1,74,714.0595,2.0103,716.0698,1.7398,sc9,717.8096,dur4,0.1529,717.9625,0.2469,718.2094,2.0102,720.2314,1.5165,44.0,1.0,282.0,721.7596,1.3402,4.0,193.3
58,dc1_01,low,1,75,723.0998,2.0103,725.1101,1.7398,mn3,726.8499,dur3,0.0823,726.9322,0.2469,727.1791,2.0103,729.2011,1.5165,41.0,1.0,435.5,730.7294,1.3402,1.0,391.6
59,dc1_01,low,1,77,739.9695,3.0095,742.979,1.7399,mc3,744.7189,dur3,0.0823,744.8012,0.2469,745.0481,2.0102,747.0701,1.5165,44.0,1.0,345.8,748.5984,1.3401,4.0,230.2
60,dc1_01,low,1,78,749.9385,2.0103,751.9488,1.7399,sn9,753.6887,dur1,0.0117,753.7004,0.2469,753.9473,2.0103,755.9693,1.5165,41.0,1.0,334.9,757.4976,1.3401,1.0,196.0
61,dc1_01,low,1,79,758.8377,3.0096,761.8473,1.7398,sc9,763.5871,dur3,0.0823,763.6694,0.2469,763.9163,2.0103,765.9383,1.5165,44.0,1.0,220.5,767.4666,1.3402,1.0,289.9
62,dc1_01,low,1,80,768.8068,2.0102,770.817,1.7399,sc3,772.5569,dur3,0.0823,772.6392,0.2468,772.886,2.0103,774.9081,1.5165,44.0,1.0,296.5,776.4363,2.0232,2.0,311.8
63,dc1_01,low,2,1,0.0092,2.0103,2.0195,1.7398,sn1,3.7593,dur4,0.1529,3.9122,0.2468,4.159,2.0103,6.181,1.5166,41.0,1.0,311.0,7.7093,1.3402,4.0,234.4
64,dc1_01,low,2,3,21.9457,1.011,22.9567,1.7399,mn3,24.6966,dur2,0.047,24.7436,0.2469,24.9905,2.0102,27.0125,1.5165,54.0,0.0,575.4,28.5408,1.3401,4.0,538.9
65,dc1_01,low,2,4,29.8809,3.0096,32.8905,1.7398,mc9,34.6303,dur1,0.0118,34.6421,0.2469,34.889,2.0102,36.911,1.5165,51.0,0.0,561.5,38.4392,1.3402,4.0,842.6
66,dc1_01,low,2,5,39.7794,3.0095,42.7889,1.7399,mn9,44.5288,dur4,0.1528,44.6816,0.2469,44.9285,2.0103,46.9505,1.5165,41.0,1.0,268.6,48.4788,1.3402,4.0,152.4
67,dc1_01,low,2,7,57.7189,2.0103,59.7292,1.7399,mn3,61.4691,dur4,0.1528,61.6219,0.2469,61.8688,6.0072,67.8878,1.5165,41.0,1.0,432.5,69.4161,1.3401,4.0,229.3
68,dc1_01,low,2,8,70.7562,2.0103,72.7665,1.7399,mn1,74.5064,dur2,0.047,74.5534,0.2469,74.8003,2.0102,76.8223,1.5165,54.0,0.0,595.9,78.3505,1.3402,1.0,293.9
69,dc1_01,low,2,9,79.6907,3.0095,82.7002,1.7399,sc7,84.4401,dur4,0.1528,84.5929,0.2469,84.8398,2.0102,86.8618,1.5165,44.0,1.0,284.0,88.3901,1.3401,4.0,307.7
70,dc1_01,low,2,11,97.6302,2.0103,99.6405,1.7398,mc1,101.3803,dur3,0.0823,101.4626,0.2469,101.7095,2.0103,103.7315,1.5165,54.0,1.0,974.2,105.2598,1.3402,4.0,312.0
71,dc1_01,low,2,12,106.6,2.0102,108.6102,1.7399,sc1,110.3501,dur4,0.1528,110.5029,0.2469,110.7498,2.0103,112.7718,1.5165,44.0,1.0,306.2,114.3001,1.3402,3.0,249.7
72,dc1_01,low,2,13,115.6403,3.0095,118.6498,1.7398,sn1,120.3896,dur1,0.0118,120.4014,0.2469,120.6483,2.0102,122.6703,1.5165,54.0,0.0,1094.7,124.1986,1.3401,4.0,780.0
73,dc1_01,low,2,15,134.579,3.0095,137.5885,1.7399,sn9,139.3284,dur4,0.1528,139.4812,0.2469,139.7281,2.0103,141.7501,1.5165,41.0,1.0,379.6,143.2784,1.3402,4.0,235.4
74,dc1_01,low,2,16,144.6186,2.0102,146.6288,1.7399,sc7,148.3687,dur2,0.047,148.4157,0.2469,148.6626,2.0102,150.6846,1.5165,51.0,0.0,374.1,152.2129,1.3401,1.0,280.4
75,dc1_01,low,2,17,153.553,2.0103,155.5633,1.7399,sn9,157.3032,dur1,0.0117,157.3149,0.2469,157.5618,4.0088,161.5823,1.5165,41.0,1.0,599.5,163.1106,1.3402,1.0,1116.5
76,dc1_01,low,2,19,176.4888,2.0103,178.4991,1.7398,sc9,180.2389,dur2,0.0471,180.286,0.2468,180.5328,2.0103,182.5549,1.5165,51.0,0.0,581.5,184.0831,1.3402,1.0,182.5
77,dc1_01,low,2,21,194.3225,1.011,195.3335,1.7399,mc7,197.0734,dur4,0.1528,197.2262,0.2469,197.4731,2.0103,199.4951,1.5165,44.0,1.0,272.6,201.0234,1.3402,4.0,555.5
78,dc1_01,low,2,23,212.2973,2.0102,214.3075,1.7399,mn9,216.0474,dur3,0.0823,216.1297,0.2469,216.3766,2.0102,218.3986,1.5165,54.0,0.0,370.7,219.9269,1.3401,2.0,691.0
79,dc1_01,low,2,24,221.267,3.0095,224.2765,1.7399,mn3,226.0164,dur1,0.0118,226.0282,0.2469,226.2751,4.0087,230.2956,1.5165,54.0,0.0,287.4,231.8238,1.3402,4.0,502.7
80,dc1_01,low,2,26,244.0617,1.011,245.0727,1.7399,sn7,246.8126,dur3,0.0823,246.8949,0.2469,247.1418,2.0102,249.1638,1.5165,54.0,0.0,512.1,250.6921,1.3401,4.0,852.0
81,dc1_01,low,2,27,252.0322,1.011,253.0432,1.7399,mc3,254.7831,dur3,0.0823,254.8654,0.2469,255.1123,6.0073,261.1313,1.5165,44.0,1.0,397.2,262.6596,1.3401,3.0,538.0
82,dc1_01,low,2,28,263.9997,3.0096,267.0093,1.7398,sc1,268.7491,dur3,0.0823,268.8314,0.2469,269.0783,2.0103,271.1003,1.5165,51.0,0.0,420.8,272.6286,1.3401,1.0,402.9
83,dc1_01,low,2,29,273.9687,1.0111,274.9798,1.7398,mc7,276.7196,dur2,0.0471,276.7667,0.2468,277.0135,2.0103,279.0355,1.5166,51.0,0.0,325.8,280.5638,1.3402,1.0,491.4
84,dc1_01,low,2,30,281.904,1.011,282.915,1.7399,sn3,284.6549,dur4,0.1528,284.8077,0.2469,285.0546,6.0072,291.0736,1.5165,41.0,1.0,304.0,292.6019,1.3401,4.0,254.6
85,dc1_01,low,2,32,301.9125,3.0095,304.922,1.7399,mn9,306.6619,dur2,0.047,306.7089,0.2469,306.9558,2.0103,308.9778,1.5165,54.0,1.0,601.3,310.5061,1.3402,4.0,403.0
86,dc1_01,low,2,33,311.8463,1.011,312.8573,1.7398,sn1,314.5971,dur3,0.0823,314.6794,0.2469,314.9263,4.0088,318.9468,1.5165,54.0,0.0,1084.9,320.4751,1.3402,4.0,819.4
87,dc1_01,low,2,34,321.8153,2.0102,323.8255,1.7399,sn3,325.5654,dur2,0.047,325.6124,0.2469,325.8593,2.0103,327.8813,1.5165,54.0,0.0,1276.2,329.4096,1.3402,4.0,679.9
88,dc1_01,low,2,36,339.649,3.0095,342.6585,1.7399,mc3,344.3984,dur1,0.0117,344.4101,0.2469,344.657,2.0102,346.679,1.5165,44.0,1.0,345.2,348.2073,1.3401,1.0,301.2
89,dc1_01,low,2,37,349.5474,3.0096,352.557,1.7398,sn3,354.2968,dur1,0.0118,354.3086,0.2469,354.5555,4.0087,358.576,1.5165,41.0,1.0,254.9,360.1042,1.3402,1.0,151.3
90,dc1_01,low,2,38,361.4444,3.0095,364.4539,1.7399,sc7,366.1938,dur1,0.0117,366.2055,0.2469,366.4524,2.0103,368.4745,1.5165,51.0,0.0,380.0,370.0027,1.3402,2.0,428.1
91,dc1_01,low,2,39,371.3429,3.0095,374.3524,1.7399,sn3,376.0923,dur3,0.0823,376.1746,0.2468,376.4214,2.0103,378.4435,1.5165,41.0,1.0,417.6,379.9717,1.3402,2.0,200.4
92,dc1_01,low,2,41,394.2081,2.0103,396.2184,1.7399,sc1,397.9583,dur1,0.0117,397.97,0.2469,398.2169,2.0102,400.2389,1.5165,51.0,0.0,890.6,401.7672,1.3401,1.0,241.1
93,dc1_01,low,2,42,403.1073,3.0095,406.1168,1.7399,mn3,407.8567,dur3,0.0823,407.939,0.2469,408.1859,2.0102,410.2079,1.5165,41.0,1.0,1411.4,411.7362,1.3401,2.0,450.4
94,dc1_01,low,2,43,413.0763,2.0103,415.0866,1.7399,mc1,416.8265,dur1,0.0117,416.8382,0.2469,417.0851,2.0103,419.1071,1.5165,44.0,1.0,567.5,420.6354,1.3402,2.0,748.3
95,dc1_01,low,2,45,430.8748,1.011,431.8858,1.7399,mc9,433.6257,dur4,0.1528,433.7785,0.2469,434.0254,4.0087,438.0459,1.5165,44.0,1.0,334.0,439.5741,1.3402,4.0,604.8
96,dc1_01,low,2,46,440.9143,1.011,441.9253,1.7399,sn7,443.6652,dur1,0.0118,443.677,0.2468,443.9238,2.0103,445.9458,1.5166,41.0,1.0,288.0,447.4741,1.3402,1.0,54.3
97,dc1_01,low,2,47,448.8143,1.011,449.8253,1.7399,sc9,451.5652,dur3,0.0823,451.6475,0.2468,451.8943,2.0103,453.9163,1.5166,44.0,1.0,208.8,455.4446,1.3402,4.0,604.8
98,dc1_01,low,2,52,493.6278,2.0102,495.638,1.7399,mc1,497.3779,dur4,0.1528,497.5307,0.2469,497.7776,6.0073,503.7966,1.5166,44.0,1.0,317.6,505.3249,1.3402,4.0,179.2
99,dc1_01,low,2,54,518.5621,2.0102,520.5723,1.7399,sc9,522.3122,dur1,0.0117,522.3239,0.2469,522.5708,6.0073,528.5898,1.5165,44.0,1.0,291.3,530.1181,1.3402,1.0,265.2
100,dc1_01,low,2,55,531.4583,3.0095,534.4678,1.7399,mn1,536.2077,dur4,0.1528,536.3605,0.2469,536.6074,2.0102,538.6294,1.5165,41.0,1.0,313.9,540.1576,1.3402,2.0,198.7
101,dc1_01,low,2,56,541.4978,2.0103,543.5081,1.7399,sn9,545.248,dur3,0.0822,545.3302,0.2469,545.5771,6.0073,551.5961,1.5165,41.0,1.0,388.9,553.1244,1.3402,4.0,315.9
102,dc1_01,low,2,57,554.4646,2.0102,556.4748,1.7399,mn1,558.2147,dur1,0.0118,558.2265,0.2468,558.4733,2.0103,560.4954,1.5165,41.0,1.0,315.6,562.0236,1.3402,2.0,225.6
103,dc1_01,low,2,59,571.2638,1.011,572.2748,1.7398,sc3,574.0146,dur2,0.0471,574.0617,0.2468,574.3085,6.0073,580.3276,1.5165,51.0,0.0,380.1,581.8558,1.3402,2.0,312.6
104,dc1_01,low,2,60,583.196,2.0103,585.2063,1.7398,mc9,586.9461,dur3,0.0823,587.0284,0.2469,587.2753,2.0103,589.2973,1.5165,44.0,1.0,318.6,590.8256,1.3402,3.0,415.7
105,dc1_01,low,2,61,592.1658,3.0095,595.1753,1.7398,mc9,596.9151,dur2,0.0471,596.9622,0.2468,597.209,2.0103,599.2311,1.5165,44.0,1.0,287.4,600.7593,1.3402,4.0,737.1
106,dc1_01,low,2,63,609.9995,1.011,611.0105,1.7398,sc1,612.7503,dur2,0.0471,612.7974,0.2468,613.0442,4.0088,617.0648,1.5165,44.0,1.0,550.9,618.593,1.3402,4.0,598.8
107,dc1_01,low,2,64,619.9332,1.011,620.9442,1.7399,mc3,622.6841,dur2,0.047,622.7311,0.2469,622.978,2.0102,625.0,1.5165,44.0,1.0,689.3,626.5283,1.3401,4.0,1240.0
108,dc1_01,low,2,65,627.8684,2.0103,629.8787,1.7399,sn9,631.6186,dur2,0.047,631.6656,0.2469,631.9125,4.0087,635.933,1.5165,54.0,1.0,1038.1,637.4613,1.3401,2.0,571.1
109,dc1_01,low,2,67,647.7006,2.0103,649.7109,1.7399,sn7,651.4508,dur4,0.1528,651.6036,0.2469,651.8505,2.0102,653.8725,1.5165,54.0,0.0,1381.0,655.4008,1.3401,4.0,237.7
110,dc1_01,low,2,68,656.7409,1.011,657.7519,1.7399,mn7,659.4918,dur4,0.1528,659.6446,0.2469,659.8915,2.0103,661.9135,1.5165,41.0,1.0,366.2,663.4418,1.3402,4.0,227.0
111,dc1_01,low,2,69,664.782,2.0102,666.7922,1.7399,sc3,668.5321,dur1,0.0118,668.5439,0.2468,668.7907,2.0103,670.8127,1.5166,51.0,0.0,515.8,672.341,1.3402,1.0,277.3
112,dc1_01,low,2,72,689.4811,1.011,690.4921,1.7399,mc7,692.232,dur1,0.0118,692.2438,0.2468,692.4906,4.0088,696.5112,1.5165,51.0,0.0,344.6,698.0394,1.3402,1.0,174.6
113,dc1_01,low,2,76,726.0772,3.0096,729.0868,1.7398,mc7,730.8266,dur3,0.0823,730.9089,0.2469,731.1558,2.0103,733.1778,1.5165,44.0,1.0,328.1,734.7061,1.3401,4.0,303.9
114,dc1_01,low,2,77,736.0462,3.0096,739.0558,1.7398,sn1,740.7956,dur2,0.0471,740.8427,0.2468,741.0895,2.0103,743.1115,1.5166,54.0,0.0,1376.0,744.6398,1.3402,4.0,1204.6
115,dc1_01,low,2,78,745.98,3.0095,748.9895,1.7399,mn7,750.7294,dur2,0.047,750.7764,0.2469,751.0233,2.0102,753.0453,1.5165,41.0,1.0,428.0,754.5736,1.3401,1.0,489.9
116,dc1_01,low,2,79,755.9137,3.0095,758.9232,1.7399,sc3,760.6631,dur3,0.0823,760.7454,0.2469,760.9923,2.0102,763.0143,1.5165,51.0,0.0,522.7,764.5426,1.3401,1.0,341.1
117,dc1_01,low,2,80,765.8827,3.0095,768.8922,1.7399,mn1,770.6321,dur3,0.0823,770.7144,0.2469,770.9613,2.0102,772.9833,1.5165,41.0,1.0,467.1,774.5116,2.0148,3.0,362.5
118,dc1_01,high,1,1,0.011,3.0095,3.0205,1.7399,sc7,4.7604,dur4,0.1528,4.9132,0.2469,5.1601,4.0088,9.1806,1.5165,51.0,0.0,982.7,10.7089,1.3402,2.0,1240.3
119,dc1_01,high,1,2,12.0491,3.0095,15.0586,1.7398,mn9,16.7984,dur4,0.1529,16.9513,0.2469,17.1982,2.0102,19.2202,1.5165,44.0,1.0,493.6,20.7484,1.3402,3.0,1032.3
120,dc1_01,high,1,4,30.9878,3.0095,33.9973,1.7399,mc3,35.7372,dur1,0.0118,35.749,0.2468,35.9958,2.0103,38.0179,1.5165,54.0,0.0,642.3,39.5461,1.3402,2.0,888.3
121,dc1_01,high,1,5,40.8863,2.0103,42.8966,1.7398,sc3,44.6364,dur4,0.1529,44.7893,0.2468,45.0361,4.0088,49.0566,1.5166,41.0,1.0,790.4,50.5849,1.3402,2.0,933.1
122,dc1_01,high,1,7,60.8243,3.0095,63.8338,1.7399,sn9,65.5737,dur4,0.1528,65.7265,0.2469,65.9734,2.0103,67.9954,1.5165,54.0,1.0,563.1,69.5237,1.3401,4.0,413.6
123,dc1_01,high,1,8,70.8638,1.0111,71.8749,1.7398,sn7,73.6147,dur4,0.1529,73.7676,0.2468,74.0144,4.0088,78.035,1.5165,44.0,1.0,460.7,79.5632,1.3402,4.0,449.4
124,dc1_01,high,1,9,80.9034,2.0102,82.9136,1.7399,mn3,84.6535,dur2,0.047,84.7005,0.2469,84.9474,2.0103,86.9694,1.5166,54.0,0.0,376.3,88.4977,1.3402,1.0,682.0
125,dc1_01,high,1,10,89.8379,2.0102,91.8481,1.7399,mc7,93.588,dur2,0.047,93.635,0.2469,93.8819,2.0103,95.9039,1.5165,44.0,1.0,353.5,97.4322,1.3402,2.0,835.9
126,dc1_01,high,1,11,98.7724,3.0095,101.7819,1.7399,sn3,103.5218,dur1,0.0117,103.5335,0.2469,103.7804,2.0102,105.8024,1.5165,41.0,1.0,483.5,107.3307,1.3401,1.0,459.8
127,dc1_01,high,1,12,108.6708,1.011,109.6818,1.7399,sc3,111.4217,dur2,0.047,111.4687,0.2469,111.7156,2.0103,113.7376,1.5165,54.0,0.0,291.1,115.2659,1.3402,2.0,712.5
128,dc1_01,high,1,13,116.6061,3.0095,119.6156,1.7399,sc7,121.3555,dur1,0.0117,121.3672,0.2469,121.6141,2.0102,123.6361,1.5165,44.0,1.0,358.3,125.1644,1.3401,4.0,1237.3
129,dc1_01,high,1,14,126.5045,2.0103,128.5148,1.7399,mn1,130.2547,dur4,0.1528,130.4075,0.2469,130.6544,2.0102,132.6764,1.5165,54.0,0.0,354.8,134.2047,1.3401,3.0,958.0
130,dc1_01,high,1,15,135.5448,3.0095,138.5543,1.7399,mn3,140.2942,dur3,0.0823,140.3765,0.2469,140.6234,2.0102,142.6454,1.5165,54.0,0.0,343.7,144.1737,1.3401,2.0,387.1
131,dc1_01,high,1,16,145.5138,1.011,146.5248,1.7399,mc1,148.2647,dur2,0.047,148.3117,0.2469,148.5586,2.0103,150.5806,1.5165,54.0,0.0,1367.2,152.1089,1.3402,1.0,917.2
132,dc1_01,high,1,17,153.4491,1.011,154.4601,1.7399,mc9,156.2,dur3,0.0822,156.2822,0.2469,156.5291,2.0103,158.5511,1.5165,44.0,1.0,291.5,160.0794,1.3402,2.0,406.5
133,dc1_01,high,1,18,161.4196,2.0102,163.4298,1.7399,sn7,165.1697,dur3,0.0823,165.252,0.2469,165.4989,2.0102,167.5209,1.5165,44.0,1.0,505.0,169.0492,1.3401,3.0,828.8
134,dc1_01,high,1,20,180.2878,1.011,181.2988,1.7399,mc7,183.0387,dur1,0.0117,183.0504,0.2469,183.2973,2.0103,185.3193,1.5165,51.0,0.0,1157.5,186.8476,1.3402,2.0,925.8
135,dc1_01,high,1,22,197.1575,1.011,198.1685,1.7399,mc1,199.9084,dur4,0.1528,200.0612,0.2469,200.3081,2.0103,202.3301,1.5165,41.0,1.0,632.3,203.8584,1.3402,3.0,615.7
136,dc1_01,high,1,23,205.1986,2.0102,207.2088,1.7399,sc3,208.9487,dur1,0.0117,208.9604,0.2469,209.2073,2.0103,211.2293,1.5165,41.0,1.0,1089.2,212.7576,1.3402,1.0,1231.8
137,dc1_01,high,1,24,214.0978,2.0102,216.108,1.7399,sn1,217.8479,dur3,0.0823,217.9302,0.2469,218.1771,2.0102,220.1991,1.5165,54.0,0.0,210.6,221.7274,1.3401,1.0,509.7
138,dc1_01,high,1,25,223.0675,1.011,224.0785,1.7399,sc1,225.8184,dur2,0.047,225.8654,0.2469,226.1123,4.0088,230.1328,1.5165,54.0,0.0,398.4,231.6611,1.3402,3.0,799.9
139,dc1_01,high,1,28,254.7967,2.0103,256.807,1.7398,mn7,258.5468,dur4,0.1529,258.6997,0.2469,258.9466,2.0102,260.9686,1.5165,44.0,1.0,708.1,262.4968,1.3402,3.0,640.8
140,dc1_01,high,1,29,263.837,3.0095,266.8465,1.7399,sc7,268.5864,dur3,0.0823,268.6687,0.2469,268.9156,4.0087,272.9361,1.5165,44.0,1.0,416.9,274.4643,1.3402,2.0,1040.0
141,dc1_01,high,1,30,275.8045,2.0103,277.8148,1.7398,mc7,279.5546,dur4,0.1529,279.7075,0.2468,279.9543,2.0103,281.9764,1.5165,44.0,1.0,447.0,283.5046,1.3402,3.0,1138.4
142,dc1_01,high,1,31,284.8448,1.011,285.8558,1.7399,sn1,287.5957,dur2,0.047,287.6427,0.2469,287.8896,2.0102,289.9116,1.5165,54.0,0.0,442.9,291.4399,1.3401,1.0,348.1
143,dc1_01,high,1,35,329.4702,3.0095,332.4797,1.7399,mc9,334.2196,dur2,0.047,334.2666,0.2469,334.5135,2.0103,336.5355,1.5165,44.0,1.0,326.5,338.0638,1.3402,3.0,309.7
144,dc1_01,high,1,37,348.3032,3.0095,351.3127,1.7399,sn3,353.0526,dur4,0.1528,353.2054,0.2469,353.4523,2.0102,355.4743,1.5165,41.0,1.0,749.5,357.0025,1.3402,4.0,383.2
145,dc1_01,high,1,38,358.3427,2.0103,360.353,1.7398,sc3,362.0928,dur3,0.0823,362.1751,0.2469,362.422,6.0073,368.441,1.5165,41.0,1.0,440.6,369.9693,1.3402,1.0,351.9
146,dc1_01,high,1,39,371.3095,2.0102,373.3197,1.7399,sn3,375.0596,dur3,0.0823,375.1419,0.2469,375.3888,2.0102,377.4108,1.5165,41.0,1.0,278.9,378.9391,1.3401,3.0,485.8
147,dc1_01,high,1,40,380.2792,3.0095,383.2887,1.7399,sn9,385.0286,dur3,0.0823,385.1109,0.2469,385.3578,4.0087,389.3783,1.5165,44.0,1.0,574.1,390.9066,1.3401,4.0,396.7
148,dc1_01,high,1,41,392.2467,1.011,393.2577,1.7399,sc9,394.9976,dur3,0.0823,395.0799,0.2469,395.3268,2.0102,397.3488,1.5165,44.0,1.0,416.2,398.8771,1.3401,2.0,421.8
149,dc1_01,high,1,44,425.0104,1.011,426.0214,1.7399,sn7,427.7613,dur2,0.047,427.8083,0.2469,428.0552,2.0103,430.0772,1.5165,51.0,0.0,795.9,431.6055,1.3402,2.0,1091.8
150,dc1_01,high,1,46,440.9867,3.0095,443.9962,1.7399,mn1,445.7361,dur2,0.047,445.7831,0.2469,446.03,2.0103,448.052,1.5165,54.0,0.0,357.1,449.5803,1.3402,1.0,282.0
151,dc1_01,high,1,47,450.9205,1.011,451.9315,1.7398,mc3,453.6713,dur4,0.1529,453.8242,0.2468,454.071,6.0073,460.0901,1.5165,41.0,1.0,337.4,461.6183,1.3402,2.0,455.6
152,dc1_01,high,1,48,462.9585,2.0103,464.9688,1.7398,sc9,466.7086,dur1,0.0118,466.7204,0.2469,466.9673,2.0102,468.9893,1.5165,44.0,1.0,357.4,470.5175,1.3402,2.0,938.2
153,dc1_01,high,1,49,471.8577,1.011,472.8687,1.7399,mc3,474.6086,dur3,0.0823,474.6909,0.2469,474.9378,2.0102,476.9598,1.5165,54.0,0.0,370.2,478.488,1.3402,1.0,268.0
154,dc1_01,high,1,51,489.7267,1.011,490.7377,1.7399,mc1,492.4776,dur3,0.0823,492.5599,0.2468,492.8067,4.0088,496.8273,1.5165,54.0,0.0,350.7,498.3555,1.3402,2.0,333.5
155,dc1_01,high,1,52,499.6957,2.0103,501.706,1.7398,mn3,503.4458,dur4,0.1529,503.5987,0.2468,503.8455,2.0103,505.8675,1.5166,41.0,1.0,485.2,507.3958,1.3402,3.0,563.8
156,dc1_01,high,1,54,517.6352,1.011,518.6462,1.7399,mn9,520.3861,dur2,0.047,520.4331,0.2469,520.68,2.0102,522.702,1.5165,44.0,1.0,312.9,524.2303,1.3401,1.0,334.5
157,dc1_01,high,1,55,525.5704,2.0103,527.5807,1.7399,mn7,529.3206,dur3,0.0823,529.4029,0.2468,529.6497,2.0103,531.6717,1.5166,44.0,1.0,297.2,533.2,1.3402,1.0,225.3
158,dc1_01,high,1,56,534.5402,2.0103,536.5505,1.7398,mn9,538.2903,dur1,0.0118,538.3021,0.2469,538.549,4.0087,542.5695,1.5165,51.0,0.0,1341.7,544.0977,1.3402,1.0,608.0
159,dc1_01,high,1,57,545.4379,1.011,546.4489,1.7399,sn9,548.1888,dur2,0.047,548.2358,0.2469,548.4827,2.0103,550.5047,1.5165,44.0,1.0,400.1,552.033,1.3401,2.0,324.2
160,dc1_01,high,1,58,553.3731,3.0096,556.3827,1.7398,sc1,558.1225,dur3,0.0823,558.2048,0.2469,558.4517,2.0103,560.4737,1.5165,54.0,0.0,287.1,562.002,1.3401,1.0,1266.1
161,dc1_01,high,1,59,563.3421,2.0103,565.3524,1.7399,mc3,567.0923,dur2,0.047,567.1393,0.2469,567.3862,2.0102,569.4082,1.5165,54.0,0.0,284.8,570.9365,1.3401,2.0,320.9
162,dc1_01,high,1,60,572.2766,2.0103,574.2869,1.7399,mn7,576.0268,dur2,0.047,576.0738,0.2469,576.3207,2.0102,578.3427,1.5165,51.0,0.0,299.5,579.871,1.3401,1.0,776.7
163,dc1_01,high,1,62,590.1103,2.0103,592.1206,1.7399,mn9,593.8605,dur3,0.0823,593.9428,0.2468,594.1896,2.0103,596.2117,1.5165,44.0,1.0,1104.1,597.7399,1.3402,1.0,962.6
164,dc1_01,high,1,64,608.9786,1.011,609.9896,1.7398,sn9,611.7294,dur1,0.0118,611.7412,0.2469,611.9881,6.0072,618.0071,1.5165,44.0,1.0,288.1,619.5354,1.3401,2.0,384.1
165,dc1_01,high,1,66,630.774,1.011,631.785,1.7399,mc1,633.5249,dur1,0.0117,633.5366,0.2469,633.7835,4.0088,637.804,1.5166,41.0,1.0,1091.1,639.3323,1.3402,2.0,566.7
166,dc1_01,high,1,67,640.6725,1.011,641.6835,1.7399,sc1,643.4234,dur1,0.0117,643.4351,0.2469,643.682,2.0103,645.704,1.5165,54.0,0.0,280.9,647.2323,1.3401,2.0,489.5
167,dc1_01,high,1,70,666.512,2.0102,668.5222,1.7399,mn1,670.2621,dur1,0.0117,670.2738,0.2469,670.5207,4.0088,674.5412,1.5166,41.0,1.0,296.7,676.0695,1.3402,1.0,284.5
168,dc1_01,high,1,72,686.3089,3.0095,689.3184,1.7399,sc9,691.0583,dur2,0.047,691.1053,0.2469,691.3522,6.0072,697.3712,1.5165,44.0,1.0,392.0,698.8995,1.3401,1.0,193.1
169,dc1_01,high,1,74,709.1389,3.0095,712.1484,1.7398,sn3,713.8882,dur2,0.0471,713.9353,0.2468,714.1821,6.0073,720.2012,1.5165,41.0,1.0,423.5,721.7294,1.3402,1.0,618.2
170,dc1_01,high,1,75,723.0696,3.0095,726.0791,1.7399,mn1,727.819,dur3,0.0823,727.9013,0.2469,728.1482,2.0102,730.1702,1.5165,54.0,0.0,1453.8,731.6984,1.3402,2.0,821.6
171,dc1_01,high,1,76,733.0386,1.011,734.0496,1.7399,sn7,735.7895,dur1,0.0117,735.8012,0.2469,736.0481,2.0103,738.0701,1.5166,44.0,1.0,296.7,739.5984,1.3402,3.0,528.5
172,dc1_01,high,1,77,740.9386,1.011,741.9496,1.7398,sc7,743.6894,dur2,0.0471,743.7365,0.2469,743.9834,2.0102,746.0054,1.5165,51.0,0.0,405.8,747.5336,1.3402,1.0,155.1
173,dc1_01,high,1,78,748.8738,3.0095,751.8833,1.7399,sc1,753.6232,dur4,0.1528,753.776,0.2469,754.0229,2.0103,756.0449,1.5165,54.0,0.0,504.1,757.5732,1.3402,2.0,374.4
174,dc1_01,high,1,79,758.9134,1.011,759.9244,1.7398,sn1,761.6642,dur4,0.1529,761.8171,0.2468,762.0639,2.0103,764.086,1.5165,41.0,1.0,329.9,765.6142,1.3402,1.0,222.9
175,dc1_01,high,2,1,0.0038,2.0102,2.014,1.7399,mn7,3.7539,dur1,0.0117,3.7656,0.2469,4.0125,2.0103,6.0345,1.5165,51.0,0.0,279.6,7.5628,1.4812,1.0,264.5
176,dc1_01,high,2,2,9.0558,2.0103,11.0661,1.7398,sc9,12.8059,dur3,0.0823,12.8882,0.2469,13.1351,2.0103,15.1571,1.5165,44.0,1.0,255.6,16.6854,1.4107,2.0,222.6
177,dc1_01,high,2,3,18.1079,3.0095,21.1174,1.7398,mc3,22.8572,dur2,0.0471,22.9043,0.2468,23.1511,2.0103,25.1731,1.5166,54.0,0.0,259.7,26.7014,1.446,2.0,271.7
178,dc1_01,high,2,4,28.1591,2.0103,30.1694,1.7399,mc7,31.9093,dur1,0.0117,31.921,0.2469,32.1679,2.0103,34.1899,1.5165,51.0,0.0,552.3,35.7182,1.4812,1.0,213.6
179,dc1_01,high,2,5,37.2112,2.0103,39.2215,1.7398,mc1,40.9613,dur2,0.047,41.0083,0.2469,41.2552,2.0103,43.2772,1.5165,54.0,0.0,316.9,44.8055,1.446,1.0,518.9
180,dc1_01,high,2,7,56.3145,3.0095,59.324,1.7399,mc9,61.0639,dur2,0.047,61.1109,0.2469,61.3578,2.0103,63.3798,1.5165,44.0,1.0,201.3,64.9081,1.446,3.0,406.6
181,dc1_01,high,2,8,66.3658,1.011,67.3768,1.7399,sn1,69.1167,dur3,0.0823,69.199,0.2469,69.4459,2.0102,71.4679,1.5165,54.0,0.0,265.4,72.9962,1.4107,1.0,235.6
182,dc1_01,high,2,9,74.4186,3.0095,77.4281,1.7399,mn1,79.168,dur4,0.1528,79.3208,0.2469,79.5677,4.0088,83.5882,1.5165,41.0,1.0,527.2,85.1165,1.3402,1.0,221.3
183,dc1_01,high,2,10,86.4567,1.011,87.4677,1.7399,mn9,89.2076,dur2,0.047,89.2546,0.2468,89.5014,2.0103,91.5235,1.5165,44.0,1.0,330.0,93.0517,1.3402,3.0,1171.4
184,dc1_01,high,2,11,94.3919,1.011,95.4029,1.7399,sc7,97.1428,dur2,0.047,97.1898,0.2469,97.4367,6.0073,103.4557,1.5165,44.0,1.0,440.7,104.984,1.3401,3.0,266.2
185,dc1_01,high,2,12,106.3241,1.0111,107.3352,1.7398,mc7,109.075,dur2,0.0471,109.1221,0.2468,109.3689,2.0103,111.3909,1.5166,44.0,1.0,488.2,112.9192,1.3402,3.0,373.1
186,dc1_01,high,2,13,114.2594,3.0095,117.2689,1.7399,sc1,119.0088,dur3,0.0823,119.0911,0.2468,119.3379,2.0103,121.3599,1.5166,54.0,0.0,296.8,122.8882,1.3402,3.0,638.1
187,dc1_01,high,2,14,124.2284,1.011,125.2394,1.7399,mn3,126.9793,dur3,0.0823,127.0616,0.2468,127.3084,2.0103,129.3304,1.5166,54.0,0.0,596.6,130.8587,1.3402,2.0,522.7
188,dc1_01,high,2,15,132.1989,1.011,133.2099,1.7399,mc3,134.9498,dur1,0.0117,134.9615,0.2469,135.2084,4.0088,139.2289,1.5165,41.0,1.0,475.2,140.7572,1.3402,1.0,191.1
189,dc1_01,high,2,16,142.0974,2.0102,144.1076,1.7399,sn1,145.8475,dur4,0.1528,146.0003,0.2469,146.2472,2.0103,148.2692,1.5165,41.0,1.0,341.8,149.7975,1.3401,2.0,292.2
190,dc1_01,high,2,17,151.1376,3.0096,154.1472,1.7398,sc3,155.887,dur2,0.0471,155.9341,0.2468,156.1809,6.0073,162.2,1.5165,41.0,1.0,512.6,163.7282,1.3402,1.0,409.8
191,dc1_01,high,2,18,165.0684,3.0095,168.0779,1.7399,mc9,169.8178,dur3,0.0823,169.9001,0.2468,170.1469,4.0088,174.1675,1.5165,44.0,1.0,338.6,175.6957,1.3402,2.0,999.8
192,dc1_01,high,2,20,189.9321,1.011,190.9431,1.7399,sc3,192.683,dur4,0.1528,192.8358,0.2469,193.0827,2.0103,195.1047,1.5165,54.0,0.0,230.2,196.633,1.3402,3.0,256.4
193,dc1_01,high,2,21,197.9732,2.0102,199.9834,1.7399,mn9,201.7233,dur1,0.0118,201.7351,0.2468,201.9819,2.0103,204.0039,1.5166,44.0,1.0,562.3,205.5322,1.3402,1.0,356.0
194,dc1_01,high,2,22,206.8724,2.0102,208.8826,1.7399,sc9,210.6225,dur2,0.047,210.6695,0.2469,210.9164,2.0103,212.9384,1.5165,44.0,1.0,293.8,214.4667,1.3402,3.0,284.2
195,dc1_01,high,2,24,224.7061,3.0095,227.7156,1.7399,sn3,229.4555,dur3,0.0823,229.5378,0.2468,229.7846,2.0103,231.8067,1.5165,54.0,0.0,1087.7,233.3349,1.3402,2.0,682.1
196,dc1_01,high,2,26,242.5751,3.0095,245.5846,1.7398,sc7,247.3244,dur4,0.1529,247.4773,0.2468,247.7241,2.0103,249.7462,1.5165,44.0,1.0,307.9,251.2744,1.3402,3.0,268.0
197,dc1_01,high,2,27,252.6146,2.0103,254.6249,1.7398,mn9,256.3647,dur3,0.0823,256.447,0.2469,256.6939,2.0103,258.7159,1.5165,51.0,0.0,531.7,260.2442,1.3402,2.0,576.9
198,dc1_01,high,2,28,261.5844,3.0095,264.5939,1.7398,sn7,266.3337,dur2,0.0471,266.3808,0.2468,266.6276,2.0103,268.6497,1.5165,44.0,1.0,483.1,270.1779,1.3402,3.0,356.0
199,dc1_01,high,2,29,271.5181,1.011,272.5291,1.7399,mn3,274.269,dur4,0.1528,274.4218,0.2469,274.6687,2.0102,276.6907,1.5165,54.0,0.0,330.2,278.219,1.3401,3.0,185.2
200,dc1_01,high,2,30,279.5591,2.0103,281.5694,1.7399,mn7,283.3093,dur3,0.0823,283.3916,0.2468,283.6384,4.0088,287.659,1.5165,44.0,1.0,332.6,289.1872,1.3402,1.0,260.9
201,dc1_01,high,2,31,290.5274,3.0095,293.5369,1.7399,sn3,295.2768,dur4,0.1528,295.4296,0.2469,295.6765,2.0102,297.6985,1.5165,41.0,1.0,603.9,299.2268,1.3401,4.0,371.5
202,dc1_01,high,2,32,300.5669,3.0095,303.5764,1.7399,mn1,305.3163,dur3,0.0823,305.3986,0.2469,305.6455,2.0102,307.6675,1.5165,54.0,0.0,1355.9,309.1958,1.3401,2.0,824.5
203,dc1_01,high,2,33,310.5359,2.0103,312.5462,1.7399,mc1,314.2861,dur4,0.1528,314.4389,0.2469,314.6858,2.0102,316.7078,1.5165,41.0,1.0,755.6,318.2361,1.3401,4.0,700.5
204,dc1_01,high,2,35,329.4747,3.0095,332.4842,1.7399,mn7,334.2241,dur4,0.1528,334.3769,0.2469,334.6238,4.0087,338.6443,1.5165,44.0,1.0,341.8,340.1726,1.3401,3.0,670.2
205,dc1_01,high,2,36,341.5127,2.0103,343.523,1.7399,sn9,345.2629,dur4,0.1528,345.4157,0.2469,345.6626,2.0102,347.6846,1.5165,44.0,1.0,547.8,349.2129,1.3401,1.0,358.8
206,dc1_01,high,2,37,350.553,2.0103,352.5633,1.7399,sn7,354.3032,dur1,0.0117,354.3149,0.2469,354.5618,4.0088,358.5823,1.5165,44.0,1.0,617.4,360.1106,1.3402,1.0,305.8
207,dc1_01,high,2,39,370.35,3.0095,373.3595,1.7399,mn1,375.0994,dur2,0.047,375.1464,0.2469,375.3933,4.0087,379.4138,1.5165,54.0,0.0,402.5,380.942,1.3402,2.0,284.0
208,dc1_01,high,2,40,382.2822,3.0095,385.2917,1.7399,mc3,387.0316,dur3,0.0823,387.1139,0.2469,387.3608,2.0102,389.3828,1.5165,54.0,0.0,305.2,390.911,1.3402,3.0,241.0
209,dc1_01,high,2,41,392.2512,3.0095,395.2607,1.7399,sn7,397.0006,dur4,0.1528,397.1534,0.2469,397.4003,2.0103,399.4223,1.5165,44.0,1.0,622.3,400.9506,1.3402,4.0,299.5
210,dc1_01,high,2,42,402.2908,1.011,403.3018,1.7398,mc7,405.0416,dur4,0.1529,405.1945,0.2468,405.4413,2.0103,407.4634,1.5165,44.0,1.0,725.7,408.9916,1.3402,2.0,330.7
211,dc1_01,high,2,43,410.3318,2.0103,412.3421,1.7398,sc9,414.0819,dur4,0.1529,414.2348,0.2468,414.4816,2.0103,416.5036,1.5166,44.0,1.0,733.0,418.0319,1.3402,2.0,688.3
212,dc1_01,high,2,44,419.3721,2.0102,421.3823,1.7399,mn9,423.1222,dur4,0.1528,423.275,0.2469,423.5219,4.0088,427.5424,1.5166,44.0,1.0,293.4,429.0707,1.3402,2.0,621.7
213,dc1_01,high,2,45,430.4109,1.011,431.4219,1.7399,sc3,433.1618,dur1,0.0117,433.1735,0.2469,433.4204,2.0102,435.4424,1.5165,54.0,0.0,256.5,436.9707,1.3401,1.0,270.1
214,dc1_01,high,2,46,438.3108,3.0096,441.3204,1.7398,mc3,443.0602,dur4,0.1529,443.2131,0.2468,443.4599,6.0073,449.479,1.5165,41.0,1.0,299.6,451.0072,1.3402,3.0,600.8
215,dc1_01,high,2,47,452.3474,2.0103,454.3577,1.7398,sn9,456.0975,dur2,0.0471,456.1446,0.2468,456.3914,2.0103,458.4134,1.5166,44.0,1.0,332.3,459.9417,1.3402,2.0,708.2
216,dc1_01,high,2,48,461.2819,1.011,462.2929,1.7399,sc1,464.0328,dur4,0.1528,464.1856,0.2469,464.4325,4.0087,468.453,1.5165,54.0,0.0,535.0,469.9812,1.3402,1.0,166.0
217,dc1_01,high,2,50,480.2206,2.0103,482.2309,1.7399,sn1,483.9708,dur2,0.047,484.0178,0.2469,484.2647,2.0102,486.2867,1.5165,54.0,0.0,303.3,487.815,1.3401,2.0,274.1
218,dc1_01,high,2,51,489.1551,1.011,490.1661,1.7399,sc1,491.906,dur2,0.047,491.953,0.2469,492.1999,2.0103,494.2219,1.5165,41.0,1.0,935.6,495.7502,1.3402,1.0,401.2
219,dc1_01,high,2,52,497.0904,3.0095,500.0999,1.7398,mc1,501.8397,dur1,0.0118,501.8515,0.2469,502.0984,2.0102,504.1204,1.5165,54.0,0.0,400.7,505.6487,1.3401,2.0,628.7
220,dc1_01,high,2,54,514.8888,3.0095,517.8983,1.7399,mc9,519.6382,dur4,0.1528,519.791,0.2469,520.0379,4.0087,524.0584,1.5165,44.0,1.0,299.4,525.5867,1.3401,4.0,514.2
221,dc1_01,high,2,55,526.9268,2.0103,528.9371,1.7399,sn9,530.677,dur3,0.0823,530.7593,0.2468,531.0061,2.0103,533.0282,1.5165,51.0,0.0,1327.6,534.5564,1.3402,1.0,794.9
222,dc1_01,high,2,57,545.7951,2.0102,547.8053,1.7399,sn7,549.5452,dur3,0.0823,549.6275,0.2469,549.8744,6.0072,555.8934,1.5165,44.0,1.0,368.8,557.4217,1.3401,4.0,783.0
223,dc1_01,high,2,58,558.7618,2.0103,560.7721,1.7399,sc7,562.512,dur1,0.0117,562.5237,0.2469,562.7706,2.0102,564.7926,1.5165,44.0,1.0,1040.4,566.3209,1.3401,4.0,829.4
224,dc1_01,high,2,60,575.5963,2.0102,577.6065,1.7399,mn3,579.3464,dur1,0.0118,579.3582,0.2468,579.605,6.0073,585.6241,1.5165,54.0,0.0,231.6,587.1523,1.3402,1.0,324.1
225,dc1_01,high,2,61,588.4925,1.011,589.5035,1.7399,mn7,591.2434,dur2,0.047,591.2904,0.2469,591.5373,2.0102,593.5593,1.5165,44.0,1.0,237.6,595.0876,1.3401,2.0,406.5
226,dc1_01,high,2,63,606.3262,1.011,607.3372,1.7399,mc9,609.0771,dur1,0.0117,609.0888,0.2469,609.3357,6.0073,615.3547,1.5166,44.0,1.0,372.7,616.883,1.3402,1.0,303.1
227,dc1_01,high,2,68,654.8193,1.011,655.8303,1.7399,sn9,657.5702,dur1,0.0117,657.5819,0.2469,657.8288,2.0103,659.8508,1.5165,44.0,1.0,773.5,661.3791,1.3402,1.0,509.8
228,dc1_01,high,2,69,662.7193,1.011,663.7303,1.7399,mn1,665.4702,dur1,0.0117,665.4819,0.2469,665.7288,2.0102,667.7508,1.5165,41.0,1.0,617.5,669.2791,1.3401,2.0,791.2
229,dc1_01,high,2,70,670.6192,1.0111,671.6303,1.7398,sn1,673.3701,dur1,0.0118,673.3819,0.2469,673.6288,6.0072,679.6478,1.5165,54.0,0.0,309.3,681.176,1.3402,2.0,708.8
230,dc1_01,high,2,72,691.4154,1.011,692.4264,1.7399,mc1,694.1663,dur3,0.0823,694.2486,0.2469,694.4955,2.0102,696.5175,1.5165,54.0,0.0,548.8,698.0458,1.3401,3.0,422.7
231,dc1_01,high,2,73,699.3859,1.011,700.3969,1.7399,sc7,702.1368,dur3,0.0823,702.2191,0.2469,702.466,2.0102,704.488,1.5165,44.0,1.0,175.5,706.0163,1.3401,1.0,274.5
232,dc1_01,high,2,74,707.3564,2.0103,709.3667,1.7399,sc1,711.1066,dur1,0.0117,711.1183,0.2469,711.3652,2.0103,713.3872,1.5165,54.0,0.0,641.8,714.9155,1.3402,2.0,1035.9
233,dc1_01,high,2,75,716.2557,3.0095,719.2652,1.7398,sc3,721.005,dur3,0.0823,721.0873,0.2469,721.3342,6.0073,727.3532,1.5165,41.0,1.0,678.0,728.8815,1.3402,1.0,210.6
234,dc1_01,high,2,76,730.2217,2.0102,732.2319,1.7399,mc7,733.9718,dur3,0.0823,734.0541,0.2469,734.301,2.0102,736.323,1.5165,44.0,1.0,264.2,737.8512,1.3402,3.0,368.8
235,dc1_01,high,2,77,739.1914,3.0095,742.2009,1.7399,sn3,743.9408,dur2,0.047,743.9878,0.2469,744.2347,4.0088,748.2552,1.5165,54.0,0.0,380.2,749.7835,1.3402,3.0,722.1
236,dc1_01,high,2,78,751.1237,1.011,752.1347,1.7398,sc9,753.8745,dur1,0.0118,753.8863,0.2469,754.1332,2.0102,756.1552,1.5165,44.0,1.0,329.4,757.6835,1.3401,1.0,266.6
237,dc1_01,high,2,79,759.0236,1.011,760.0346,1.7399,sn3,761.7745,dur1,0.0118,761.7863,0.2468,762.0331,2.0103,764.0552,1.5165,54.0,0.0,403.9,765.5834,1.3402,2.0,268.7
238,dc1_03,low,1,1,0.012,1.011,1.023,1.7399,mc7,2.7629,dur1,0.0117,2.7746,0.2469,3.0215,6.0073,9.0405,1.5165,44.0,1.0,451.1,10.5688,1.4812,1.0,298.2
239,dc1_03,low,1,2,12.0618,3.0095,15.0713,1.7399,sc9,16.8112,dur2,0.047,16.8582,0.2469,17.1051,2.0102,19.1271,1.5165,44.0,1.0,384.4,20.6554,1.4459,2.0,182.4
240,dc1_03,low,1,4,31.1651,2.0103,33.1754,1.7399,mn7,34.9153,dur1,0.0117,34.927,0.2469,35.1739,2.0102,37.1959,1.5165,54.0,0.0,288.0,38.7242,1.4812,1.0,176.9
241,dc1_03,low,1,5,40.2172,2.0102,42.2274,1.7399,mn3,43.9673,dur2,0.047,44.0143,0.2469,44.2612,2.0103,46.2832,1.5165,54.0,0.0,231.4,47.8115,1.446,1.0,92.3
242,dc1_03,low,1,6,49.2692,1.011,50.2802,1.7399,mn7,52.0201,dur2,0.047,52.0671,0.2469,52.314,6.0073,58.333,1.5165,54.0,0.0,297.0,59.8613,1.446,2.0,353.1
243,dc1_03,low,1,7,61.319,1.011,62.33,1.7399,sc9,64.0699,dur3,0.0823,64.1522,0.2469,64.3991,2.0102,66.4211,1.5165,44.0,1.0,232.9,67.9493,1.4107,3.0,243.0
244,dc1_03,low,1,8,69.3718,2.0103,71.3821,1.7398,mn9,73.1219,dur1,0.0118,73.1337,0.2469,73.3806,4.0087,77.4011,1.5165,54.0,0.0,422.9,78.9294,1.4812,2.0,376.7
245,dc1_03,low,1,9,80.4224,3.0095,83.4319,1.7398,sc1,85.1717,dur1,0.0118,85.1835,0.2469,85.4304,2.0102,87.4524,1.5165,51.0,0.0,493.5,88.9806,1.4813,1.0,427.7
246,dc1_03,low,1,11,99.5257,3.0095,102.5352,1.7399,sc7,104.2751,dur1,0.0117,104.2868,0.2469,104.5337,2.0103,106.5557,1.5165,44.0,1.0,254.4,108.084,1.4812,1.0,232.7
247,dc1_03,low,1,12,109.577,1.011,110.588,1.7399,sn1,112.3279,dur2,0.047,112.3749,0.2469,112.6218,6.0072,118.6408,1.5165,54.0,0.0,286.7,120.1691,1.4459,2.0,249.8
248,dc1_03,low,1,13,121.6268,1.011,122.6378,1.7399,sn7,124.3777,dur1,0.0117,124.3894,0.2469,124.6363,2.0103,126.6583,1.5165,54.0,0.0,267.4,128.1866,1.4812,2.0,223.7
249,dc1_03,low,1,14,129.6796,2.0102,131.6898,1.7399,sn1,133.4297,dur1,0.0118,133.4415,0.2468,133.6883,6.0073,139.7074,1.5165,54.0,0.0,339.9,141.2356,1.4813,2.0,208.9
250,dc1_03,low,1,15,142.7286,2.0103,144.7389,1.7399,mc9,146.4788,dur4,0.1528,146.6316,0.2469,146.8785,2.0102,148.9005,1.5165,44.0,1.0,356.5,150.4287,1.3402,4.0,203.8
251,dc1_03,low,1,16,151.7689,1.011,152.7799,1.7399,sn9,154.5198,dur2,0.047,154.5668,0.2469,154.8137,4.0088,158.8342,1.5165,41.0,1.0,540.7,160.3625,1.3402,2.0,756.2
252,dc1_03,low,1,17,161.7027,3.0095,164.7122,1.7398,mn1,166.452,dur1,0.0118,166.4638,0.2469,166.7107,2.0102,168.7327,1.5165,54.0,0.0,420.5,170.261,1.3401,2.0,314.6
253,dc1_03,low,1,19,180.5003,1.011,181.5113,1.7399,mn9,183.2512,dur3,0.0823,183.3335,0.2469,183.5804,2.0102,185.6024,1.5165,54.0,0.0,294.1,187.1307,1.3401,2.0,223.9
254,dc1_03,low,1,20,188.4708,1.0111,189.4819,1.7398,sn7,191.2217,dur4,0.1529,191.3746,0.2468,191.6214,2.0103,193.6434,1.5166,41.0,1.0,267.6,195.1717,1.3402,3.0,210.5
255,dc1_03,low,1,21,196.5119,2.0102,198.5221,1.7399,mc9,200.262,dur1,0.0118,200.2738,0.2468,200.5206,2.0103,202.5427,1.5165,44.0,1.0,305.8,204.0709,1.3402,2.0,247.2
256,dc1_03,low,1,22,205.4111,1.011,206.4221,1.7399,sc3,208.162,dur1,0.0117,208.1737,0.2469,208.4206,2.0103,210.4426,1.5165,44.0,1.0,287.2,211.9709,1.3402,2.0,213.8
257,dc1_03,low,1,24,227.2065,3.0096,230.2161,1.7398,sc1,231.9559,dur2,0.047,232.0029,0.2469,232.2498,2.0103,234.2718,1.5165,44.0,1.0,348.3,235.8001,1.3402,2.0,198.7
258,dc1_03,low,1,25,237.1403,2.0102,239.1505,1.7399,mn3,240.8904,dur4,0.1528,241.0432,0.2469,241.2901,2.0103,243.3121,1.5165,41.0,1.0,384.0,244.8404,1.3402,4.0,234.3
259,dc1_03,low,1,26,246.1806,3.0095,249.1901,1.7399,mn1,250.93,dur4,0.1528,251.0828,0.2468,251.3296,2.0103,253.3517,1.5165,54.0,0.0,364.6,254.8799,1.3402,2.0,187.6
260,dc1_03,low,1,29,277.0163,3.0095,280.0258,1.7399,mc1,281.7657,dur2,0.047,281.8127,0.2469,282.0596,2.0102,284.0816,1.5165,44.0,1.0,309.0,285.6099,1.3401,2.0,209.6
261,dc1_03,low,1,30,286.95,2.0103,288.9603,1.7399,mn1,290.7002,dur2,0.047,290.7472,0.2469,290.9941,2.0102,293.0161,1.5165,54.0,0.0,389.6,294.5443,1.3402,2.0,189.9
262,dc1_03,low,1,31,295.8845,1.011,296.8955,1.7399,mc1,298.6354,dur1,0.0118,298.6472,0.2468,298.894,2.0103,300.916,1.5166,44.0,1.0,293.3,302.4443,1.3402,1.0,172.9
263,dc1_03,low,1,32,303.7845,3.0095,306.794,1.7399,sc7,308.5339,dur4,0.1528,308.6867,0.2469,308.9336,2.0102,310.9556,1.5165,44.0,1.0,241.5,312.4839,1.3401,4.0,197.9
264,dc1_03,low,1,33,313.824,3.0095,316.8335,1.7399,sc3,318.5734,dur2,0.047,318.6204,0.2469,318.8673,2.0103,320.8893,1.5165,44.0,1.0,360.9,322.4176,1.3402,2.0,195.6
265,dc1_03,low,1,35,333.6562,2.0103,335.6665,1.7399,mc7,337.4064,dur2,0.047,337.4534,0.2469,337.7003,2.0102,339.7223,1.5165,44.0,1.0,326.2,341.2505,1.3402,3.0,258.9
266,dc1_03,low,1,36,342.5907,1.011,343.6017,1.7399,sc9,345.3416,dur4,0.1528,345.4944,0.2469,345.7413,2.0103,347.7633,1.5165,44.0,1.0,425.1,349.2916,1.3401,4.0,201.4
267,dc1_03,low,1,37,350.6317,3.0096,353.6413,1.7398,sc9,355.3811,dur1,0.0118,355.3929,0.2469,355.6398,6.0072,361.6588,1.5165,44.0,1.0,322.6,363.1871,1.3401,2.0,238.3
268,dc1_03,low,1,38,364.5272,2.0103,366.5375,1.7399,sn9,368.2774,dur1,0.0117,368.2891,0.2469,368.536,2.0102,370.558,1.5165,41.0,1.0,414.2,372.0863,1.3401,1.0,257.2
269,dc1_03,low,1,39,373.4264,2.0103,375.4367,1.7399,mn3,377.1766,dur3,0.0823,377.2589,0.2468,377.5057,4.0088,381.5263,1.5165,54.0,0.0,296.2,383.0545,1.3402,3.0,206.9
270,dc1_03,low,1,40,384.3947,3.0095,387.4042,1.7399,sn9,389.1441,dur3,0.0823,389.2264,0.2469,389.4733,2.0102,391.4953,1.5165,41.0,1.0,419.5,393.0235,1.3402,3.0,288.3
271,dc1_03,low,1,41,394.3637,1.011,395.3747,1.7399,sn3,397.1146,dur2,0.047,397.1616,0.2469,397.4085,2.0102,399.4305,1.5165,54.0,0.0,373.5,400.9588,1.3401,2.0,217.2
272,dc1_03,low,1,42,402.2989,3.0095,405.3084,1.7399,sc7,407.0483,dur2,0.047,407.0953,0.2469,407.3422,2.0103,409.3642,1.5165,44.0,1.0,261.4,410.8925,1.3402,2.0,201.9
273,dc1_03,low,1,44,422.1311,2.0103,424.1414,1.7399,sn3,425.8813,dur4,0.1528,426.0341,0.2469,426.281,6.0072,432.3,1.5165,41.0,1.0,318.8,433.8283,1.3401,4.0,230.5
274,dc1_03,low,1,47,452.9669,2.0102,454.9771,1.7399,sc3,456.717,dur3,0.0823,456.7993,0.2469,457.0462,6.0072,463.0652,1.5165,44.0,1.0,249.0,464.5935,1.3401,2.0,198.7
275,dc1_03,low,1,48,465.9336,2.0103,467.9439,1.7399,sn7,469.6838,dur2,0.047,469.7308,0.2469,469.9777,2.0102,471.9997,1.5165,54.0,0.0,358.2,473.5279,1.3402,3.0,244.9
276,dc1_03,low,1,49,474.8681,3.0095,477.8776,1.7399,mn7,479.6175,dur4,0.1528,479.7703,0.2469,480.0172,4.0088,484.0377,1.5165,41.0,1.0,326.1,485.566,1.3402,3.0,207.2
277,dc1_03,low,1,50,486.9062,3.0095,489.9157,1.7398,mc7,491.6555,dur3,0.0823,491.7378,0.2469,491.9847,2.0103,494.0067,1.5165,44.0,1.0,407.4,495.535,1.3402,3.0,228.1
278,dc1_03,low,1,51,496.8752,3.0095,499.8847,1.7399,mc3,501.6246,dur2,0.047,501.6716,0.2468,501.9184,2.0103,503.9405,1.5165,44.0,1.0,295.8,505.4687,1.3402,3.0,237.6
279,dc1_03,low,1,52,506.8089,2.0103,508.8192,1.7398,mn9,510.559,dur2,0.0471,510.6061,0.2468,510.8529,2.0103,512.8749,1.5166,54.0,0.0,286.6,514.4032,1.3402,2.0,174.8
280,dc1_03,low,1,53,515.7434,3.0095,518.7529,1.7399,sn1,520.4928,dur3,0.0823,520.5751,0.2468,520.8219,4.0088,524.8425,1.5165,54.0,0.0,325.4,526.3707,1.3402,2.0,182.5
281,dc1_03,low,1,54,527.7109,2.0103,529.7212,1.7398,mc3,531.461,dur4,0.1529,531.6139,0.2468,531.8607,2.0103,533.8827,1.5166,44.0,1.0,571.3,535.411,1.3402,4.0,196.4
282,dc1_03,low,1,55,536.7512,1.011,537.7622,1.7399,sc7,539.5021,dur3,0.0823,539.5844,0.2468,539.8312,2.0103,541.8532,1.5166,44.0,1.0,354.1,543.3815,1.3402,3.0,188.6
283,dc1_03,low,1,56,544.7217,2.0102,546.7319,1.7399,sn7,548.4718,dur3,0.0823,548.5541,0.2469,548.801,2.0102,550.823,1.5165,54.0,0.0,280.6,552.3513,1.3401,2.0,165.9
284,dc1_03,low,1,57,553.6914,1.011,554.7024,1.7399,sn1,556.4423,dur4,0.1528,556.5951,0.2469,556.842,4.0088,560.8625,1.5166,41.0,1.0,230.1,562.3908,1.3402,4.0,178.2
285,dc1_03,low,1,58,563.731,1.011,564.742,1.7399,mc7,566.4819,dur4,0.1528,566.6347,0.2469,566.8816,2.0102,568.9036,1.5165,44.0,1.0,310.6,570.4318,1.3402,4.0,175.7
286,dc1_03,low,1,60,581.6705,3.0095,584.68,1.7399,mn9,586.4199,dur4,0.1528,586.5727,0.2469,586.8196,6.0072,592.8386,1.5165,41.0,1.0,249.8,594.3669,1.3401,3.0,184.3
287,dc1_03,low,1,61,595.707,2.0103,597.7173,1.7399,mc1,599.4572,dur4,0.1528,599.61,0.2469,599.8569,2.0102,601.8789,1.5165,44.0,1.0,359.5,603.4071,1.3402,4.0,196.5
288,dc1_03,low,1,62,604.7473,3.0095,607.7568,1.7399,sc1,609.4967,dur4,0.1528,609.6495,0.2469,609.8964,2.0103,611.9184,1.5165,44.0,1.0,302.5,613.4467,1.3402,3.0,164.1
289,dc1_03,low,1,63,614.7869,1.011,615.7979,1.7398,mn3,617.5377,dur1,0.0118,617.5495,0.2469,617.7964,2.0102,619.8184,1.5165,54.0,0.0,306.7,621.3466,1.3402,1.0,166.4
290,dc1_03,low,1,64,622.6868,3.0095,625.6963,1.7399,mc9,627.4362,dur2,0.047,627.4832,0.2469,627.7301,2.0103,629.7521,1.5165,44.0,1.0,326.0,631.2804,1.3402,2.0,195.8
291,dc1_03,low,1,65,632.6206,2.0102,634.6308,1.7399,mc1,636.3707,dur3,0.0823,636.453,0.2469,636.6999,2.0102,638.7219,1.5165,44.0,1.0,223.6,640.2501,1.3402,4.0,190.7
292,dc1_03,low,1,66,641.5903,1.011,642.6013,1.7399,mn7,644.3412,dur3,0.0823,644.4235,0.2469,644.6704,2.0102,646.6924,1.5165,54.0,0.0,444.1,648.2206,1.3402,2.0,160.9
293,dc1_03,low,1,68,657.4608,3.0095,660.4703,1.7399,sc3,662.2102,dur4,0.1528,662.363,0.2469,662.6099,2.0102,664.6319,1.5165,44.0,1.0,252.5,666.1601,1.3402,2.0,231.8
294,dc1_03,low,1,69,667.5003,1.011,668.5113,1.7399,sn3,670.2512,dur3,0.0823,670.3335,0.2469,670.5804,4.0087,674.6009,1.5165,41.0,1.0,285.3,676.1292,1.3401,4.0,192.0
295,dc1_03,low,1,71,685.3693,2.0102,687.3795,1.7399,sn3,689.1194,dur1,0.0118,689.1312,0.2469,689.3781,2.0102,691.4001,1.5165,54.0,0.0,298.8,692.9283,1.3402,1.0,234.5
296,dc1_03,low,1,74,714.0654,2.0103,716.0757,1.7399,sn9,717.8156,dur4,0.1528,717.9684,0.2469,718.2153,2.0102,720.2373,1.5165,41.0,1.0,349.8,721.7656,1.3401,4.0,182.7
297,dc1_03,low,1,75,723.1057,2.0103,725.116,1.7399,sc1,726.8559,dur3,0.0823,726.9382,0.2468,727.185,2.0103,729.207,1.5166,44.0,1.0,316.9,730.7353,1.3402,2.0,151.9
298,dc1_03,low,1,77,739.9755,3.0095,742.985,1.7398,mn1,744.7248,dur3,0.0823,744.8071,0.2469,745.054,2.0103,747.076,1.5165,54.0,0.0,265.0,748.6043,1.3402,2.0,165.2
299,dc1_03,low,1,78,749.9445,2.0102,751.9547,1.7399,mc3,753.6946,dur1,0.0117,753.7063,0.2469,753.9532,2.0103,755.9752,1.5165,51.0,0.0,372.5,757.5035,1.3402,1.0,407.3
300,dc1_03,low,1,79,758.8437,3.0095,761.8532,1.7399,mc3,763.5931,dur3,0.0822,763.6753,0.2469,763.9222,2.0103,765.9442,1.5165,44.0,1.0,259.9,767.4725,1.3402,2.0,201.1
301,dc1_03,low,1,80,768.8127,2.0102,770.8229,1.7399,mc9,772.5628,dur3,0.0823,772.6451,0.2469,772.892,2.0102,774.914,1.5165,44.0,1.0,274.0,776.4423,2.0319,4.0,175.1
302,dc1_03,low,2,1,0.0063,2.0103,2.0166,1.7398,sc1,3.7564,dur4,0.1529,3.9093,0.2468,4.1561,2.0103,6.1781,1.5166,44.0,1.0,296.9,7.7064,1.3402,2.0,254.7
303,dc1_03,low,2,3,21.9428,1.011,22.9538,1.7399,mn3,24.6937,dur2,0.047,24.7407,0.2469,24.9876,2.0102,27.0096,1.5165,54.0,0.0,351.5,28.5379,1.3401,2.0,160.1
304,dc1_03,low,2,4,29.878,3.0095,32.8875,1.7399,sn7,34.6274,dur1,0.0118,34.6392,0.2469,34.8861,2.0102,36.9081,1.5165,41.0,1.0,346.8,38.4363,1.3402,1.0,148.2
305,dc1_03,low,2,5,39.7765,3.0095,42.786,1.7399,sn7,44.5259,dur4,0.1528,44.6787,0.2469,44.9256,2.0103,46.9476,1.5165,41.0,1.0,319.6,48.4759,1.3401,2.0,165.7
306,dc1_03,low,2,7,57.716,2.0103,59.7263,1.7398,mc9,61.4661,dur4,0.1529,61.619,0.2468,61.8658,6.0073,67.8849,1.5165,44.0,1.0,243.6,69.4131,1.3402,4.0,159.0
307,dc1_03,low,2,8,70.7533,2.0103,72.7636,1.7398,mn9,74.5034,dur2,0.0471,74.5505,0.2468,74.7973,2.0103,76.8194,1.5165,41.0,1.0,292.6,78.3476,1.3402,1.0,182.4
308,dc1_03,low,2,9,79.6878,3.0095,82.6973,1.7399,sc9,84.4372,dur4,0.1528,84.59,0.2469,84.8369,2.0102,86.8589,1.5165,44.0,1.0,211.4,88.3872,1.3401,4.0,149.0
309,dc1_03,low,2,11,97.6273,2.0103,99.6376,1.7398,mn9,101.3774,dur3,0.0823,101.4597,0.2469,101.7066,2.0103,103.7286,1.5165,54.0,0.0,328.5,105.2569,1.3402,3.0,224.9
310,dc1_03,low,2,12,106.5971,2.0102,108.6073,1.7399,sn9,110.3472,dur4,0.1528,110.5,0.2469,110.7469,2.0102,112.7689,1.5165,41.0,1.0,385.6,114.2972,1.3401,4.0,176.0
311,dc1_03,low,2,13,115.6373,3.0096,118.6469,1.7398,sn3,120.3867,dur1,0.0118,120.3985,0.2469,120.6454,2.0102,122.6674,1.5165,41.0,1.0,290.2,124.1956,1.3402,1.0,194.0
312,dc1_03,low,2,14,125.5358,2.0103,127.5461,1.7398,sn1,129.2859,dur4,0.1529,129.4388,0.2468,129.6856,2.0103,131.7077,1.5165,41.0,1.0,233.3,133.2359,1.3402,4.0,162.0
313,dc1_03,low,2,15,134.5761,3.0095,137.5856,1.7399,mc3,139.3255,dur4,0.1528,139.4783,0.2469,139.7252,2.0102,141.7472,1.5165,44.0,1.0,274.4,143.2755,1.3401,4.0,109.2
314,dc1_03,low,2,16,144.6156,2.0103,146.6259,1.7399,mc9,148.3658,dur2,0.047,148.4128,0.2469,148.6597,2.0102,150.6817,1.5165,44.0,1.0,244.7,152.21,1.3401,4.0,1523.6
315,dc1_03,low,2,17,153.5501,2.0103,155.5604,1.7399,mc9,157.3003,dur1,0.0117,157.312,0.2469,157.5589,4.0087,161.5794,1.5165,51.0,0.0,275.2,163.1077,1.3401,1.0,221.4
316,dc1_03,low,2,18,164.4478,3.0096,167.4574,1.7398,mn3,169.1972,dur4,0.1529,169.3501,0.2468,169.5969,4.0088,173.6174,1.5166,41.0,1.0,314.1,175.1457,1.3402,4.0,183.9
317,dc1_03,low,2,19,176.4859,2.0102,178.4961,1.7399,sn1,180.236,dur2,0.047,180.283,0.2469,180.5299,2.0103,182.5519,1.5165,54.0,0.0,253.8,184.0802,1.3402,2.0,163.9
318,dc1_03,low,2,20,185.4204,2.0102,187.4306,1.7399,sc7,189.1705,dur1,0.0118,189.1823,0.2468,189.4291,2.0103,191.4511,1.5166,44.0,1.0,284.3,192.9794,1.3402,1.0,189.0
319,dc1_03,low,2,21,194.3196,1.011,195.3306,1.7399,mn7,197.0705,dur4,0.1528,197.2233,0.2469,197.4702,2.0102,199.4922,1.5165,41.0,1.0,364.2,201.0205,1.3401,3.0,171.4
320,dc1_03,low,2,22,202.3606,1.011,203.3716,1.7399,sc7,205.1115,dur2,0.047,205.1585,0.2469,205.4054,4.0088,209.4259,1.5165,44.0,1.0,261.2,210.9542,1.3402,2.0,211.3
321,dc1_03,low,2,23,212.2944,2.0102,214.3046,1.7399,mn3,216.0445,dur3,0.0823,216.1268,0.2469,216.3737,2.0102,218.3957,1.5165,54.0,0.0,307.5,219.9239,1.3402,2.0,174.5
322,dc1_03,low,2,24,221.2641,3.0095,224.2736,1.7399,sc9,226.0135,dur1,0.0118,226.0253,0.2468,226.2721,4.0088,230.2926,1.5166,51.0,0.0,255.7,231.8209,1.3402,1.0,160.3
323,dc1_03,low,2,26,244.0588,1.011,245.0698,1.7399,mn7,246.8097,dur3,0.0823,246.892,0.2469,247.1389,2.0102,249.1609,1.5165,54.0,0.0,307.6,250.6891,1.3402,2.0,173.0
324,dc1_03,low,2,27,252.0293,1.011,253.0403,1.7399,sc1,254.7802,dur3,0.0823,254.8625,0.2469,255.1094,6.0072,261.1284,1.5165,44.0,1.0,305.0,262.6566,1.3402,1.0,192.6
325,dc1_03,low,2,28,263.9968,3.0095,267.0063,1.7399,sc9,268.7462,dur3,0.0823,268.8285,0.2469,269.0754,2.0102,271.0974,1.5165,44.0,1.0,310.1,272.6257,1.3401,2.0,200.5
326,dc1_03,low,2,29,273.9658,1.011,274.9768,1.7399,mc3,276.7167,dur2,0.047,276.7637,0.2469,277.0106,2.0103,279.0326,1.5165,44.0,1.0,351.1,280.5609,1.3402,2.0,183.6
327,dc1_03,low,2,30,281.9011,1.011,282.9121,1.7398,sc3,284.6519,dur4,0.1529,284.8048,0.2468,285.0516,6.0073,291.0707,1.5165,44.0,1.0,273.1,292.5989,1.3402,4.0,187.4
328,dc1_03,low,2,31,293.9391,1.011,294.9501,1.7399,sn1,296.69,dur3,0.0823,296.7723,0.2468,297.0191,2.0103,299.0412,1.5165,41.0,1.0,468.7,300.5694,1.3402,3.0,196.8
329,dc1_03,low,2,32,301.9096,3.0095,304.9191,1.7399,mc7,306.659,dur2,0.047,306.706,0.2469,306.9529,2.0102,308.9749,1.5165,44.0,1.0,289.8,310.5032,1.3401,2.0,168.4
330,dc1_03,low,2,33,311.8433,1.011,312.8543,1.7399,sn7,314.5942,dur3,0.0823,314.6765,0.2469,314.9234,4.0087,318.9439,1.5165,41.0,1.0,288.4,320.4722,1.3401,3.0,176.9
331,dc1_03,low,2,34,321.8123,2.0103,323.8226,1.7399,sc1,325.5625,dur2,0.047,325.6095,0.2469,325.8564,2.0102,327.8784,1.5165,44.0,1.0,275.7,329.4067,1.3401,2.0,170.7
332,dc1_03,low,2,36,339.646,3.0096,342.6556,1.7398,mc7,344.3954,dur1,0.0118,344.4072,0.2469,344.6541,2.0102,346.6761,1.5165,44.0,1.0,216.8,348.2043,1.3402,2.0,337.3
333,dc1_03,low,2,37,349.5445,3.0095,352.554,1.7399,mc1,354.2939,dur1,0.0117,354.3056,0.2469,354.5525,4.0088,358.573,1.5166,44.0,1.0,240.0,360.1013,1.3402,1.0,146.4
334,dc1_03,low,2,38,361.4415,3.0095,364.451,1.7399,mn1,366.1909,dur1,0.0117,366.2026,0.2469,366.4495,2.0103,368.4715,1.5165,54.0,0.0,293.2,369.9998,1.3402,2.0,208.1
335,dc1_03,low,2,39,371.34,3.0095,374.3495,1.7398,sc7,376.0893,dur3,0.0823,376.1716,0.2469,376.4185,2.0103,378.4405,1.5165,44.0,1.0,224.8,379.9688,1.3402,2.0,180.4
336,dc1_03,low,2,41,394.2052,2.0102,396.2154,1.7399,sc1,397.9553,dur1,0.0118,397.9671,0.2468,398.2139,2.0103,400.236,1.5165,44.0,1.0,230.4,401.7642,1.3402,2.0,176.8
337,dc1_03,low,2,42,403.1044,3.0095,406.1139,1.7399,mc3,407.8538,dur3,0.0823,407.9361,0.2469,408.183,2.0102,410.205,1.5165,44.0,1.0,282.6,411.7332,1.3402,4.0,217.1
338,dc1_03,low,2,43,413.0734,2.0103,415.0837,1.7398,mc3,416.8235,dur1,0.0118,416.8353,0.2469,417.0822,2.0102,419.1042,1.5165,51.0,0.0,292.3,420.6324,1.3402,1.0,166.6
339,dc1_03,low,2,45,430.8718,1.011,431.8828,1.7399,sc7,433.6227,dur4,0.1528,433.7755,0.2469,434.0224,4.0088,438.0429,1.5165,44.0,1.0,255.8,439.5712,1.3402,4.0,177.7
340,dc1_03,low,2,47,448.8113,1.011,449.8223,1.7399,mc9,451.5622,dur3,0.0823,451.6445,0.2469,451.8914,2.0102,453.9134,1.5165,44.0,1.0,287.7,455.4417,1.3401,4.0,157.7
341,dc1_03,low,2,48,456.7818,2.0103,458.7921,1.7399,mn9,460.532,dur1,0.0117,460.5437,0.2469,460.7906,2.0103,462.8126,1.5165,41.0,1.0,254.3,464.3409,1.3402,1.0,180.4
342,dc1_03,low,2,49,465.6811,1.011,466.6921,1.7398,sn3,468.4319,dur2,0.0471,468.479,0.2468,468.7258,2.0103,470.7479,1.5165,54.0,0.0,240.7,472.2761,1.3402,2.0,73.9
343,dc1_03,low,2,50,473.6163,3.0095,476.6258,1.7399,mn9,478.3657,dur4,0.1528,478.5185,0.2469,478.7654,2.0102,480.7874,1.5165,41.0,1.0,353.0,482.3157,1.3401,3.0,189.6
344,dc1_03,low,2,51,483.6558,3.0095,486.6653,1.7399,sn9,488.4052,dur3,0.0823,488.4875,0.2469,488.7344,2.0102,490.7564,1.5165,41.0,1.0,299.3,492.2847,1.3401,3.0,187.8
345,dc1_03,low,2,52,493.6248,2.0103,495.6351,1.7399,sn3,497.375,dur4,0.1528,497.5278,0.2469,497.7747,6.0072,503.7937,1.5165,41.0,1.0,331.6,505.322,1.3401,4.0,158.0
346,dc1_03,low,2,54,518.5591,2.0103,520.5694,1.7398,mn3,522.3092,dur1,0.0118,522.321,0.2469,522.5679,6.0072,528.5869,1.5165,41.0,1.0,312.6,530.1152,1.3401,1.0,236.0
347,dc1_03,low,2,55,531.4553,3.0095,534.4648,1.7399,mn1,536.2047,dur4,0.1528,536.3575,0.2469,536.6044,2.0103,538.6264,1.5165,54.0,0.0,296.9,540.1547,1.3402,2.0,174.7
348,dc1_03,low,2,56,541.4949,2.0102,543.5051,1.7399,sc3,545.245,dur3,0.0823,545.3273,0.2469,545.5742,6.0072,551.5932,1.5165,44.0,1.0,336.0,553.1215,1.3401,2.0,194.7
349,dc1_03,low,2,57,554.4616,2.0103,556.4719,1.7399,sn9,558.2118,dur1,0.0117,558.2235,0.2469,558.4704,2.0102,560.4924,1.5165,41.0,1.0,248.8,562.0207,1.3401,1.0,178.0
350,dc1_03,low,2,59,571.2608,1.011,572.2718,1.7399,mn7,574.0117,dur2,0.047,574.0587,0.2469,574.3056,6.0073,580.3246,1.5165,54.0,0.0,263.4,581.8529,1.3401,1.0,247.7
351,dc1_03,low,2,60,583.193,2.0103,585.2033,1.7399,sn3,586.9432,dur3,0.0823,587.0255,0.2468,587.2723,2.0103,589.2944,1.5165,54.0,0.0,277.2,590.8226,1.3402,3.0,235.0
352,dc1_03,low,2,61,592.1628,3.0095,595.1723,1.7399,sc3,596.9122,dur2,0.047,596.9592,0.2469,597.2061,2.0102,599.2281,1.5165,44.0,1.0,257.4,600.7564,1.3401,2.0,170.5
353,dc1_03,low,2,63,609.9965,1.011,611.0075,1.7399,mn1,612.7474,dur2,0.047,612.7944,0.2469,613.0413,4.0087,617.0618,1.5165,41.0,1.0,296.1,618.5901,1.3401,1.0,165.3
354,dc1_03,low,2,64,619.9302,1.011,620.9412,1.7399,mc1,622.6811,dur2,0.047,622.7281,0.2469,622.975,2.0103,624.997,1.5165,44.0,1.0,252.9,626.5253,1.3402,1.0,175.8
355,dc1_03,low,2,65,627.8655,2.0102,629.8757,1.7399,sc9,631.6156,dur2,0.047,631.6626,0.2469,631.9095,4.0088,635.93,1.5165,51.0,0.0,268.6,637.4583,1.3402,1.0,151.6
356,dc1_03,low,2,67,647.6977,2.0102,649.7079,1.7399,mc7,651.4478,dur4,0.1528,651.6006,0.2469,651.8475,2.0103,653.8695,1.5165,44.0,1.0,232.5,655.3978,1.3402,4.0,182.5
357,dc1_03,low,2,68,656.738,1.011,657.749,1.7398,mc1,659.4888,dur4,0.1529,659.6417,0.2469,659.8886,2.0102,661.9106,1.5165,44.0,1.0,232.7,663.4388,1.3402,4.0,151.3
358,dc1_03,low,2,69,664.779,2.0103,666.7893,1.7398,sn1,668.5291,dur1,0.0118,668.5409,0.2469,668.7878,2.0102,670.8098,1.5165,41.0,1.0,258.3,672.338,1.3402,1.0,171.3
359,dc1_03,low,2,72,689.4781,1.0111,690.4892,1.7398,sc3,692.229,dur1,0.0118,692.2408,0.2469,692.4877,4.0087,696.5082,1.5165,51.0,0.0,238.3,698.0365,1.3401,1.0,173.7
360,dc1_03,low,2,76,726.0743,3.0095,729.0838,1.7399,mc7,730.8237,dur3,0.0823,730.906,0.2468,731.1528,2.0103,733.1748,1.5165,44.0,1.0,223.7,734.7031,1.3402,3.0,202.7
361,dc1_03,low,2,77,736.0433,3.0095,739.0528,1.7399,sn7,740.7927,dur2,0.047,740.8397,0.2469,741.0866,2.0102,743.1086,1.5165,54.0,0.0,214.8,744.6368,1.3402,2.0,165.5
362,dc1_03,low,2,78,745.977,3.0095,748.9865,1.7399,sn9,750.7264,dur2,0.047,750.7734,0.2469,751.0203,2.0103,753.0423,1.5165,54.0,0.0,226.5,754.5706,1.3401,2.0,176.6
363,dc1_03,low,2,79,755.9107,3.0096,758.9203,1.7398,mc1,760.6601,dur3,0.0823,760.7424,0.2469,760.9893,2.0103,763.0113,1.5165,44.0,1.0,245.6,764.5396,1.3402,3.0,171.5
364,dc1_03,low,2,80,765.8798,3.0095,768.8893,1.7398,mn1,770.6291,dur3,0.0823,770.7114,0.2469,770.9583,2.0103,772.9803,1.5165,41.0,1.0,282.2,774.5086,2.0167,1.0,189.7
365,dc1_03,high,1,1,0.0057,3.0095,3.0152,1.7399,mn1,4.7551,dur4,0.1528,4.9079,0.2469,5.1548,4.0087,9.1753,1.5165,54.0,0.0,306.6,10.7036,1.3401,2.0,526.0
366,dc1_03,high,1,2,12.0437,3.0095,15.0532,1.7399,mc3,16.7931,dur4,0.1528,16.9459,0.2469,17.1928,2.0103,19.2148,1.5165,41.0,1.0,314.2,20.7431,1.3402,4.0,236.6
367,dc1_03,high,1,4,30.9825,3.0095,33.992,1.7399,mn3,35.7319,dur1,0.0117,35.7436,0.2469,35.9905,2.0103,38.0125,1.5165,41.0,1.0,475.1,39.5408,1.3402,1.0,275.4
368,dc1_03,high,1,5,40.881,2.0102,42.8912,1.7399,sn1,44.6311,dur4,0.1528,44.7839,0.2469,45.0308,4.0088,49.0513,1.5165,41.0,1.0,251.0,50.5796,1.3401,4.0,537.2
369,dc1_03,high,1,7,60.819,3.0095,63.8285,1.7399,sn3,65.5684,dur4,0.1528,65.7212,0.2469,65.9681,2.0102,67.9901,1.5165,41.0,1.0,325.9,69.5183,1.3402,4.0,252.8
370,dc1_03,high,1,8,70.8585,1.011,71.8695,1.7399,mc7,73.6094,dur4,0.1528,73.7622,0.2469,74.0091,4.0087,78.0296,1.5165,44.0,1.0,317.7,79.5579,1.3401,4.0,187.3
371,dc1_03,high,1,9,80.898,2.0103,82.9083,1.7399,mn9,84.6482,dur2,0.047,84.6952,0.2469,84.9421,2.0102,86.9641,1.5165,51.0,0.0,227.5,88.4924,1.3401,1.0,180.0
372,dc1_03,high,1,10,89.8325,2.0103,91.8428,1.7399,mc1,93.5827,dur2,0.047,93.6297,0.2469,93.8766,2.0102,95.8986,1.5165,54.0,0.0,287.5,97.4268,1.3402,2.0,260.7
373,dc1_03,high,1,11,98.767,3.0095,101.7765,1.7399,mc7,103.5164,dur1,0.0118,103.5282,0.2468,103.775,2.0103,105.7971,1.5165,51.0,0.0,209.4,107.3253,1.3402,1.0,69.8
374,dc1_03,high,1,12,108.6655,1.011,109.6765,1.7399,sc3,111.4164,dur2,0.047,111.4634,0.2469,111.7103,2.0102,113.7323,1.5165,54.0,0.0,230.6,115.2605,1.3402,2.0,148.8
375,dc1_03,high,1,13,116.6007,3.0095,119.6102,1.7399,sc3,121.3501,dur1,0.0118,121.3619,0.2468,121.6087,2.0103,123.6308,1.5165,41.0,1.0,203.8,125.159,1.3402,1.0,398.9
376,dc1_03,high,1,14,126.4992,2.0103,128.5095,1.7398,mc1,130.2493,dur4,0.1529,130.4022,0.2468,130.649,2.0103,132.671,1.5166,41.0,1.0,221.9,134.1993,1.3402,4.0,193.3
377,dc1_03,high,1,15,135.5395,3.0095,138.549,1.7399,sn9,140.2889,dur3,0.0822,140.3711,0.2469,140.618,2.0103,142.64,1.5166,44.0,1.0,197.6,144.1683,1.3402,3.0,247.5
378,dc1_03,high,1,16,145.5085,1.011,146.5195,1.7399,mn7,148.2594,dur2,0.047,148.3064,0.2469,148.5533,2.0102,150.5753,1.5165,44.0,1.0,270.5,152.1035,1.3402,1.0,219.2
379,dc1_03,high,1,17,153.4437,1.011,154.4547,1.7399,mn3,156.1946,dur3,0.0823,156.2769,0.2469,156.5238,2.0102,158.5458,1.5165,54.0,0.0,261.1,160.074,1.3402,1.0,259.2
380,dc1_03,high,1,18,161.4142,2.0103,163.4245,1.7399,mn7,165.1644,dur3,0.0822,165.2466,0.2469,165.4935,2.0103,167.5155,1.5165,44.0,1.0,231.8,169.0438,1.3402,3.0,214.8
381,dc1_03,high,1,20,180.2824,1.0111,181.2935,1.7398,sc9,183.0333,dur1,0.0118,183.0451,0.2469,183.292,2.0102,185.314,1.5165,51.0,0.0,344.6,186.8422,1.3402,1.0,484.2
382,dc1_03,high,1,21,188.1824,2.0103,190.1927,1.7398,sc9,191.9325,dur3,0.0823,192.0148,0.2469,192.2617,2.0103,194.2837,1.5165,44.0,1.0,190.4,195.812,1.3402,2.0,462.8
383,dc1_03,high,1,22,197.1522,1.011,198.1632,1.7398,sc3,199.903,dur4,0.1529,200.0559,0.2468,200.3027,2.0103,202.3248,1.5165,41.0,1.0,209.1,203.853,1.3402,3.0,203.8
384,dc1_03,high,1,23,205.1932,2.0103,207.2035,1.7398,sc1,208.9433,dur1,0.0118,208.9551,0.2469,209.202,2.0102,211.224,1.5165,54.0,0.0,206.7,212.7522,1.3402,1.0,420.6
385,dc1_03,high,1,24,214.0924,2.0103,216.1027,1.7398,mn9,217.8425,dur3,0.0823,217.9248,0.2469,218.1717,2.0103,220.1937,1.5165,51.0,0.0,237.7,221.722,1.3402,2.0,248.6
386,dc1_03,high,1,25,223.0622,1.011,224.0732,1.7399,sc9,225.8131,dur2,0.047,225.8601,0.2468,226.1069,4.0088,230.1275,1.5165,44.0,1.0,332.5,231.6557,1.3402,1.0,273.2
387,dc1_03,high,1,28,254.7913,2.0103,256.8016,1.7399,sc9,258.5415,dur4,0.1528,258.6943,0.2469,258.9412,2.0102,260.9632,1.5165,44.0,1.0,254.2,262.4915,1.3401,4.0,357.7
388,dc1_03,high,1,29,263.8316,3.0095,266.8411,1.7399,mn1,268.581,dur3,0.0823,268.6633,0.2469,268.9102,4.0088,272.9307,1.5165,54.0,0.0,256.7,274.459,1.3401,2.0,246.7
389,dc1_03,high,1,30,275.7991,2.0103,277.8094,1.7399,mn7,279.5493,dur4,0.1528,279.7021,0.2469,279.949,2.0102,281.971,1.5165,44.0,1.0,270.0,283.4993,1.3401,4.0,236.0
390,dc1_03,high,1,31,284.8394,1.011,285.8504,1.7399,sn9,287.5903,dur2,0.047,287.6373,0.2469,287.8842,2.0103,289.9062,1.5165,44.0,1.0,237.1,291.4345,1.3402,3.0,274.1
391,dc1_03,high,1,35,329.4648,3.0095,332.4743,1.7399,sn3,334.2142,dur2,0.047,334.2612,0.2469,334.5081,2.0103,336.5301,1.5166,41.0,1.0,294.2,338.0584,1.3402,2.0,383.5
392,dc1_03,high,1,36,339.3986,2.0102,341.4088,1.7399,sc7,343.1487,dur1,0.0118,343.1605,0.2468,343.4073,2.0103,345.4294,1.5165,44.0,1.0,285.2,346.9576,1.3402,1.0,60.8
393,dc1_03,high,1,37,348.2978,3.0095,351.3073,1.7399,mc9,353.0472,dur4,0.1528,353.2,0.2469,353.4469,2.0102,355.4689,1.5165,44.0,1.0,225.1,356.9972,1.3401,4.0,294.5
394,dc1_03,high,1,38,358.3373,2.0103,360.3476,1.7399,mc7,362.0875,dur3,0.0823,362.1698,0.2468,362.4166,6.0073,368.4357,1.5165,44.0,1.0,253.7,369.9639,1.3402,4.0,211.9
395,dc1_03,high,1,39,371.3041,2.0103,373.3144,1.7398,sc1,375.0542,dur3,0.0823,375.1365,0.2469,375.3834,2.0103,377.4054,1.5165,54.0,0.0,375.1,378.9337,1.3401,2.0,226.1
396,dc1_03,high,1,40,380.2738,3.0096,383.2834,1.7398,sc3,385.0232,dur3,0.0823,385.1055,0.2469,385.3524,4.0088,389.3729,1.5165,41.0,1.0,220.9,390.9012,1.3402,3.0,244.7
397,dc1_03,high,1,41,392.2414,1.011,393.2524,1.7398,sn1,394.9922,dur3,0.0823,395.0745,0.2469,395.3214,2.0103,397.3434,1.5165,41.0,1.0,215.3,398.8717,1.3402,2.0,225.9
398,dc1_03,high,1,44,425.0051,1.011,426.0161,1.7398,mc7,427.7559,dur2,0.0471,427.803,0.2468,428.0498,2.0103,430.0719,1.5165,51.0,0.0,229.1,431.6001,1.3402,1.0,164.7
399,dc1_03,high,1,45,432.9403,1.011,433.9513,1.7399,sn9,435.6912,dur4,0.1528,435.844,0.2469,436.0909,2.0102,438.1129,1.5165,44.0,1.0,222.2,439.6412,1.3401,4.0,219.5
400,dc1_03,high,1,46,440.9813,3.0095,443.9908,1.7399,mc3,445.7307,dur2,0.047,445.7777,0.2469,446.0246,2.0103,448.0466,1.5165,41.0,1.0,185.4,449.5749,1.3402,1.0,159.4
401,dc1_03,high,1,47,450.9151,1.011,451.9261,1.7398,sc7,453.6659,dur4,0.1529,453.8188,0.2468,454.0656,6.0073,460.0847,1.5165,44.0,1.0,321.7,461.6129,1.3402,3.0,228.2
402,dc1_03,high,1,48,462.9531,2.0103,464.9634,1.7398,sn9,466.7032,dur1,0.0118,466.715,0.2469,466.9619,2.0102,468.9839,1.5165,51.0,0.0,488.0,470.5122,1.3401,1.0,372.0
403,dc1_03,high,1,49,471.8523,1.011,472.8633,1.7399,sc7,474.6032,dur3,0.0823,474.6855,0.2469,474.9324,2.0102,476.9544,1.5165,44.0,1.0,297.9,478.4827,1.3401,1.0,197.4
404,dc1_03,high,1,51,489.7213,1.011,490.7323,1.7399,sn3,492.4722,dur3,0.0823,492.5545,0.2468,492.8013,4.0088,496.8219,1.5165,41.0,1.0,301.0,498.3501,1.3402,3.0,275.0
405,dc1_03,high,1,52,499.6903,2.0103,501.7006,1.7398,sc1,503.4404,dur4,0.1529,503.5933,0.2468,503.8401,2.0103,505.8621,1.5166,41.0,1.0,366.0,507.3904,1.3402,2.0,232.1
406,dc1_03,high,1,54,517.6298,1.011,518.6408,1.7399,mn3,520.3807,dur2,0.047,520.4277,0.2469,520.6746,2.0102,522.6966,1.5165,54.0,0.0,269.3,524.2249,1.3401,1.0,267.2
407,dc1_03,high,1,55,525.565,2.0103,527.5753,1.7399,mc1,529.3152,dur3,0.0823,529.3975,0.2468,529.6443,2.0103,531.6664,1.5165,41.0,1.0,228.3,533.1946,1.3402,3.0,230.2
408,dc1_03,high,1,57,545.4325,1.011,546.4435,1.7399,sn7,548.1834,dur2,0.047,548.2304,0.2469,548.4773,2.0103,550.4993,1.5165,51.0,0.0,260.9,552.0276,1.3402,1.0,176.6
409,dc1_03,high,1,58,553.3678,3.0095,556.3773,1.7398,mc9,558.1171,dur3,0.0823,558.1994,0.2469,558.4463,2.0103,560.4683,1.5165,44.0,1.0,223.1,561.9966,1.3402,4.0,465.7
410,dc1_03,high,1,59,563.3368,2.0102,565.347,1.7399,sc7,567.0869,dur2,0.047,567.1339,0.2469,567.3808,2.0102,569.4028,1.5165,44.0,1.0,212.4,570.9311,1.3401,2.0,211.9
411,dc1_03,high,1,60,572.2712,2.0103,574.2815,1.7399,sc1,576.0214,dur2,0.047,576.0684,0.2469,576.3153,2.0102,578.3373,1.5165,54.0,0.0,225.5,579.8656,1.3401,1.0,190.9
412,dc1_03,high,1,62,590.1049,2.0103,592.1152,1.7399,mc3,593.8551,dur3,0.0823,593.9374,0.2468,594.1842,2.0103,596.2063,1.5165,41.0,1.0,181.5,597.7345,1.3402,3.0,207.1
413,dc1_03,high,1,64,608.9732,1.011,609.9842,1.7398,sn3,611.724,dur1,0.0118,611.7358,0.2469,611.9827,6.0072,618.0017,1.5165,54.0,0.0,253.2,619.53,1.3401,2.0,206.7
414,dc1_03,high,1,65,620.8701,3.0095,623.8796,1.7399,mc9,625.6195,dur1,0.0118,625.6313,0.2469,625.8782,2.0102,627.9002,1.5165,44.0,1.0,423.9,629.4284,1.3402,1.0,185.1
415,dc1_03,high,1,66,630.7686,1.011,631.7796,1.7399,mn7,633.5195,dur1,0.0117,633.5312,0.2469,633.7781,4.0088,637.7986,1.5166,44.0,1.0,316.4,639.3269,1.3402,2.0,200.5
416,dc1_03,high,1,67,640.6671,1.011,641.6781,1.7399,sn1,643.418,dur1,0.0117,643.4297,0.2469,643.6766,2.0102,645.6986,1.5165,41.0,1.0,291.9,647.2269,1.3401,1.0,185.1
417,dc1_03,high,1,68,648.567,1.011,649.578,1.7399,mc3,651.3179,dur1,0.0118,651.3297,0.2469,651.5766,4.0087,655.5971,1.5165,54.0,0.0,225.3,657.1253,1.3402,1.0,155.0
418,dc1_03,high,1,69,658.4655,1.011,659.4765,1.7399,mn3,661.2164,dur4,0.1528,661.3692,0.2469,661.6161,2.0103,663.6381,1.5165,41.0,1.0,235.9,665.1664,1.3401,4.0,168.3
419,dc1_03,high,1,70,666.5065,2.0103,668.5168,1.7399,mn9,670.2567,dur1,0.0117,670.2684,0.2469,670.5153,4.0088,674.5358,1.5165,44.0,1.0,246.2,676.0641,1.3402,1.0,171.6
420,dc1_03,high,1,72,686.3035,3.0095,689.313,1.7399,sn1,691.0529,dur2,0.047,691.0999,0.2469,691.3468,6.0072,697.3658,1.5165,41.0,1.0,251.9,698.8941,1.3401,2.0,164.9
421,dc1_03,high,1,73,700.2342,2.0103,702.2445,1.7399,mn1,703.9844,dur1,0.0117,703.9961,0.2469,704.243,2.0103,706.265,1.5165,41.0,1.0,511.8,707.7933,1.3402,2.0,363.8
422,dc1_03,high,1,75,723.0642,3.0095,726.0737,1.7399,sn7,727.8136,dur3,0.0823,727.8959,0.2468,728.1427,2.0103,730.1648,1.5165,44.0,1.0,403.8,731.693,1.3402,2.0,244.9
423,dc1_03,high,1,76,733.0332,1.011,734.0442,1.7399,mc1,735.7841,dur1,0.0117,735.7958,0.2469,736.0427,2.0103,738.0647,1.5165,41.0,1.0,259.0,739.593,1.3402,1.0,216.9
424,dc1_03,high,1,77,740.9332,1.011,741.9442,1.7398,mc9,743.684,dur2,0.0471,743.7311,0.2468,743.9779,2.0103,746.0,1.5165,44.0,1.0,340.9,747.5282,1.3402,2.0,209.4
425,dc1_03,high,1,78,748.8684,3.0095,751.8779,1.7399,sn7,753.6178,dur4,0.1528,753.7706,0.2469,754.0175,2.0102,756.0395,1.5165,44.0,1.0,269.5,757.5678,1.3401,4.0,174.0
426,dc1_03,high,1,79,758.9079,1.011,759.9189,1.7399,mn9,761.6588,dur4,0.1529,761.8117,0.2468,762.0585,2.0103,764.0805,1.5165,44.0,1.0,409.1,765.6088,1.3402,4.0,197.4
427,dc1_03,high,2,1,0.0131,2.0102,2.0233,1.7399,sc7,3.7632,dur1,0.0117,3.7749,0.2469,4.0218,2.0103,6.0438,1.5165,44.0,1.0,562.4,7.5721,1.4812,1.0,269.3
428,dc1_03,high,2,2,9.0651,2.0103,11.0754,1.7398,mn7,12.8152,dur3,0.0823,12.8975,0.2469,13.1444,2.0102,15.1664,1.5165,44.0,1.0,204.4,16.6947,1.4107,2.0,186.3
429,dc1_03,high,2,3,18.1171,3.0096,21.1267,1.7398,mn1,22.8665,dur2,0.047,22.9135,0.2469,23.1604,2.0103,25.1824,1.5165,41.0,1.0,222.7,26.7107,1.446,1.0,177.8
430,dc1_03,high,2,4,28.1684,2.0103,30.1787,1.7399,sc9,31.9186,dur1,0.0117,31.9303,0.2469,32.1772,2.0103,34.1992,1.5165,44.0,1.0,273.4,35.7275,1.4812,1.0,256.0
431,dc1_03,high,2,5,37.2205,2.0102,39.2307,1.7399,sc3,40.9706,dur2,0.047,41.0176,0.2469,41.2645,2.0103,43.2865,1.5165,41.0,1.0,203.2,44.8148,1.446,1.0,1522.6
432,dc1_03,high,2,7,56.3238,3.0095,59.3333,1.7399,sn3,61.0732,dur2,0.047,61.1202,0.2469,61.3671,2.0103,63.3891,1.5165,41.0,1.0,202.1,64.9174,1.446,3.0,286.5
433,dc1_03,high,2,8,66.3751,1.011,67.3861,1.7399,sc7,69.126,dur3,0.0823,69.2083,0.2469,69.4552,2.0102,71.4772,1.5165,44.0,1.0,189.1,73.0054,1.4108,3.0,222.4
434,dc1_03,high,2,9,74.4279,3.0095,77.4374,1.7399,mc9,79.1773,dur4,0.1528,79.3301,0.2469,79.577,4.0088,83.5975,1.5165,44.0,1.0,262.2,85.1258,1.3402,4.0,191.2
435,dc1_03,high,2,10,86.466,1.011,87.477,1.7398,mn3,89.2168,dur2,0.0471,89.2639,0.2468,89.5107,2.0103,91.5327,1.5166,54.0,0.0,243.3,93.061,1.3402,2.0,234.9
436,dc1_03,high,2,11,94.4012,1.011,95.4122,1.7399,mn7,97.1521,dur2,0.047,97.1991,0.2469,97.446,6.0072,103.465,1.5165,51.0,0.0,271.6,104.9933,1.3401,2.0,199.9
437,dc1_03,high,2,12,106.3334,1.011,107.3444,1.7399,mc1,109.0843,dur2,0.047,109.1313,0.2469,109.3782,2.0103,111.4002,1.5165,41.0,1.0,714.6,112.9285,1.3402,2.0,292.9
438,dc1_03,high,2,13,114.2687,3.0095,117.2782,1.7398,sn9,119.018,dur3,0.0823,119.1003,0.2469,119.3472,2.0103,121.3692,1.5165,44.0,1.0,200.8,122.8975,1.3402,3.0,223.4
439,dc1_03,high,2,14,124.2377,1.011,125.2487,1.7399,mn1,126.9886,dur3,0.0822,127.0708,0.2469,127.3177,2.0103,129.3397,1.5165,54.0,0.0,227.2,130.868,1.3402,2.0,210.9
440,dc1_03,high,2,15,132.2082,1.011,133.2192,1.7399,mn1,134.9591,dur1,0.0117,134.9708,0.2469,135.2177,4.0087,139.2382,1.5165,41.0,1.0,232.3,140.7665,1.3401,1.0,171.4
441,dc1_03,high,2,16,142.1066,2.0103,144.1169,1.7399,mn1,145.8568,dur4,0.1528,146.0096,0.2469,146.2565,2.0102,148.2785,1.5165,41.0,1.0,217.4,149.8067,1.3402,3.0,242.6
442,dc1_03,high,2,17,151.1469,3.0095,154.1564,1.7399,sn7,155.8963,dur2,0.047,155.9433,0.2469,156.1902,6.0073,162.2092,1.5165,51.0,0.0,252.4,163.7375,1.3402,1.0,213.1
443,dc1_03,high,2,18,165.0777,3.0095,168.0872,1.7399,sc3,169.8271,dur3,0.0822,169.9093,0.2469,170.1562,4.0088,174.1767,1.5166,54.0,0.0,226.4,175.705,1.3402,2.0,170.8
444,dc1_03,high,2,20,189.9414,1.011,190.9524,1.7399,mn9,192.6923,dur4,0.1528,192.8451,0.2469,193.092,2.0102,195.114,1.5165,51.0,0.0,714.0,196.6423,1.3401,2.0,406.1
445,dc1_03,high,2,21,197.9824,2.0103,199.9927,1.7399,sn9,201.7326,dur1,0.0117,201.7443,0.2469,201.9912,2.0103,204.0132,1.5165,44.0,1.0,247.1,205.5415,1.3402,1.0,151.0
446,dc1_03,high,2,22,206.8817,2.0102,208.8919,1.7399,mc9,210.6318,dur2,0.047,210.6788,0.2469,210.9257,2.0102,212.9477,1.5165,44.0,1.0,275.0,214.476,1.3401,2.0,184.5
447,dc1_03,high,2,24,224.7154,3.0095,227.7249,1.7398,sc1,229.4647,dur3,0.0823,229.547,0.2469,229.7939,2.0103,231.8159,1.5165,54.0,0.0,229.3,233.3442,1.3402,2.0,190.6
448,dc1_03,high,2,26,242.5843,3.0095,245.5938,1.7399,mc3,247.3337,dur4,0.1528,247.4865,0.2469,247.7334,2.0103,249.7554,1.5165,41.0,1.0,259.6,251.2837,1.3402,4.0,235.8
449,dc1_03,high,2,27,252.6239,2.0102,254.6341,1.7399,mc3,256.374,dur3,0.0823,256.4563,0.2469,256.7032,2.0102,258.7252,1.5165,41.0,1.0,240.0,260.2535,1.3401,4.0,194.9
450,dc1_03,high,2,28,261.5936,3.0095,264.6031,1.7399,mc3,266.343,dur2,0.047,266.39,0.2469,266.6369,2.0103,268.6589,1.5165,41.0,1.0,259.3,270.1872,1.3402,4.0,185.1
451,dc1_03,high,2,29,271.5274,1.011,272.5384,1.7398,sc3,274.2782,dur4,0.1529,274.4311,0.2468,274.6779,2.0103,276.7,1.5165,41.0,1.0,382.6,278.2282,1.3402,3.0,437.2
452,dc1_03,high,2,30,279.5684,2.0103,281.5787,1.7398,mc9,283.3185,dur3,0.0823,283.4008,0.2469,283.6477,4.0088,287.6682,1.5165,44.0,1.0,240.0,289.1965,1.3402,4.0,222.8
453,dc1_03,high,2,31,290.5367,3.0095,293.5462,1.7398,sc7,295.286,dur4,0.1529,295.4389,0.2468,295.6857,2.0103,297.7078,1.5165,44.0,1.0,229.2,299.236,1.3402,4.0,378.2
454,dc1_03,high,2,32,300.5762,3.0095,303.5857,1.7399,sn7,305.3256,dur3,0.0823,305.4079,0.2469,305.6548,2.0102,307.6768,1.5165,44.0,1.0,196.4,309.205,1.3402,3.0,298.4
455,dc1_03,high,2,33,310.5452,2.0103,312.5555,1.7398,sc1,314.2953,dur4,0.1529,314.4482,0.2468,314.695,2.0103,316.7171,1.5165,41.0,1.0,303.0,318.2453,1.3402,3.0,201.4
456,dc1_03,high,2,35,329.484,3.0095,332.4935,1.7398,sn7,334.2333,dur4,0.1529,334.3862,0.2468,334.633,4.0088,338.6536,1.5165,44.0,1.0,255.7,340.1818,1.3402,3.0,277.9
457,dc1_03,high,2,36,341.522,2.0103,343.5323,1.7398,mn7,345.2721,dur4,0.1529,345.425,0.2468,345.6718,2.0103,347.6938,1.5166,44.0,1.0,272.3,349.2221,1.3402,4.0,215.6
458,dc1_03,high,2,37,350.5623,2.0103,352.5726,1.7398,sc1,354.3124,dur1,0.0118,354.3242,0.2469,354.5711,4.0087,358.5916,1.5165,41.0,1.0,234.1,360.1198,1.3402,1.0,266.7
459,dc1_03,high,2,39,370.3592,3.0095,373.3687,1.7399,sc7,375.1086,dur2,0.047,375.1556,0.2469,375.4025,4.0088,379.423,1.5165,51.0,0.0,301.1,380.9513,1.3402,1.0,225.7
460,dc1_03,high,2,40,382.2915,3.0095,385.301,1.7399,mc1,387.0409,dur3,0.0822,387.1231,0.2469,387.37,2.0103,389.392,1.5166,41.0,1.0,281.9,390.9203,1.3402,3.0,202.7
461,dc1_03,high,2,41,392.2605,3.0095,395.27,1.7399,mc1,397.0099,dur4,0.1528,397.1627,0.2469,397.4096,2.0102,399.4316,1.5165,41.0,1.0,348.4,400.9598,1.3402,4.0,197.9
462,dc1_03,high,2,42,402.3,1.011,403.311,1.7399,mc7,405.0509,dur4,0.1528,405.2037,0.2469,405.4506,2.0103,407.4726,1.5165,44.0,1.0,299.1,409.0009,1.3402,4.0,189.8
463,dc1_03,high,2,43,410.3411,2.0102,412.3513,1.7399,sc9,414.0912,dur4,0.1528,414.244,0.2469,414.4909,2.0102,416.5129,1.5165,44.0,1.0,375.4,418.0412,1.3401,4.0,197.1
464,dc1_03,high,2,44,419.3813,2.0103,421.3916,1.7399,mn3,423.1315,dur4,0.1528,423.2843,0.2469,423.5312,4.0087,427.5517,1.5165,41.0,1.0,255.1,429.08,1.3401,4.0,156.4
465,dc1_03,high,2,45,430.4201,1.011,431.4311,1.7399,sn7,433.171,dur1,0.0118,433.1828,0.2468,433.4296,2.0103,435.4517,1.5165,44.0,1.0,331.5,436.9799,1.3402,1.0,170.1
466,dc1_03,high,2,46,438.3201,3.0095,441.3296,1.7399,sn1,443.0695,dur4,0.1528,443.2223,0.2469,443.4692,6.0073,449.4882,1.5165,41.0,1.0,262.0,451.0165,1.3401,4.0,165.6
467,dc1_03,high,2,47,452.3566,2.0103,454.3669,1.7399,sc9,456.1068,dur2,0.047,456.1538,0.2469,456.4007,2.0102,458.4227,1.5165,51.0,0.0,341.1,459.951,1.3401,1.0,184.5
468,dc1_03,high,2,48,461.2911,1.011,462.3021,1.7399,sn3,464.042,dur4,0.1528,464.1948,0.2469,464.4417,4.0088,468.4622,1.5165,41.0,1.0,237.7,469.9905,1.3402,4.0,175.9
469,dc1_03,high,2,50,480.2299,2.0102,482.2401,1.7399,sn1,483.98,dur2,0.047,484.027,0.2469,484.2739,2.0103,486.2959,1.5165,54.0,0.0,202.4,487.8242,1.3402,2.0,171.1
470,dc1_03,high,2,51,489.1644,1.011,490.1754,1.7399,sn9,491.9153,dur2,0.047,491.9623,0.2469,492.2092,2.0102,494.2312,1.5165,44.0,1.0,296.3,495.7594,1.3402,2.0,268.6
471,dc1_03,high,2,52,497.0996,3.0095,500.1091,1.7399,mn7,501.849,dur1,0.0117,501.8607,0.2469,502.1076,2.0103,504.1296,1.5165,51.0,0.0,330.6,505.6579,1.3402,1.0,194.7
472,dc1_03,high,2,54,514.898,3.0096,517.9076,1.7398,sn9,519.6474,dur4,0.1529,519.8003,0.2468,520.0471,4.0088,524.0677,1.5165,44.0,1.0,260.1,525.5959,1.3402,4.0,177.6
473,dc1_03,high,2,55,526.9361,2.0103,528.9464,1.7398,mn3,530.6862,dur3,0.0823,530.7685,0.2469,531.0154,2.0103,533.0374,1.5165,41.0,1.0,461.5,534.5657,1.3401,2.0,276.5
474,dc1_03,high,2,57,545.8043,2.0103,547.8146,1.7398,sc9,549.5544,dur3,0.0823,549.6367,0.2469,549.8836,6.0073,555.9026,1.5165,44.0,1.0,284.0,557.4309,1.3402,2.0,168.9
475,dc1_03,high,2,58,558.7711,2.0102,560.7813,1.7399,mc3,562.5212,dur1,0.0118,562.533,0.2468,562.7798,2.0103,564.8018,1.5166,54.0,0.0,308.5,566.3301,1.3402,1.0,559.1
476,dc1_03,high,2,59,567.6703,1.011,568.6813,1.7399,mn9,570.4212,dur2,0.047,570.4682,0.2469,570.7151,2.0102,572.7371,1.5165,44.0,1.0,245.7,574.2654,1.3401,1.0,23.2
477,dc1_03,high,2,60,575.6055,2.0103,577.6158,1.7399,mc9,579.3557,dur1,0.0117,579.3674,0.2469,579.6143,6.0073,585.6333,1.5165,44.0,1.0,221.5,587.1616,1.3401,2.0,212.9
478,dc1_03,high,2,61,588.5017,1.0111,589.5128,1.7398,mc7,591.2526,dur2,0.0471,591.2997,0.2468,591.5465,2.0103,593.5685,1.5166,44.0,1.0,584.7,595.0968,1.3402,2.0,747.1
479,dc1_03,high,2,63,606.3355,1.011,607.3465,1.7398,mc1,609.0863,dur1,0.0118,609.0981,0.2469,609.345,6.0072,615.364,1.5165,54.0,0.0,295.5,616.8923,1.3401,2.0,237.2
480,dc1_03,high,2,68,654.8285,1.0111,655.8396,1.7398,mn9,657.5794,dur1,0.0118,657.5912,0.2469,657.8381,2.0102,659.8601,1.5165,51.0,0.0,231.5,661.3883,1.3402,1.0,398.6
481,dc1_03,high,2,69,662.7285,1.011,663.7395,1.7399,sn1,665.4794,dur1,0.0117,665.4911,0.2469,665.738,2.0103,667.76,1.5165,54.0,0.0,207.7,669.2883,1.3402,1.0,179.7
482,dc1_03,high,2,70,670.6285,1.011,671.6395,1.7399,mn3,673.3794,dur1,0.0117,673.3911,0.2469,673.638,6.0073,679.657,1.5165,41.0,1.0,299.0,681.1853,1.3402,1.0,182.0
483,dc1_03,high,2,72,691.4247,1.011,692.4357,1.7398,sn3,694.1755,dur3,0.0823,694.2578,0.2469,694.5047,2.0103,696.5267,1.5165,41.0,1.0,258.8,698.055,1.3402,4.0,226.1
484,dc1_03,high,2,73,699.3952,1.011,700.4062,1.7399,mc7,702.1461,dur3,0.0822,702.2283,0.2469,702.4752,2.0103,704.4972,1.5165,44.0,1.0,309.3,706.0255,1.3402,3.0,291.4
485,dc1_03,high,2,74,707.3657,2.0102,709.3759,1.7399,mc7,711.1158,dur1,0.0118,711.1276,0.2468,711.3744,2.0103,713.3964,1.5166,51.0,0.0,265.1,714.9247,1.3402,1.0,173.4
486,dc1_03,high,2,75,716.2649,3.0095,719.2744,1.7399,sn1,721.0143,dur3,0.0823,721.0966,0.2468,721.3434,6.0073,727.3625,1.5165,41.0,1.0,253.2,728.8907,1.3402,3.0,198.2
487,dc1_03,high,2,76,730.2309,2.0103,732.2412,1.7398,mn9,733.981,dur3,0.0823,734.0633,0.2469,734.3102,2.0103,736.3322,1.5165,44.0,1.0,236.7,737.8605,1.3402,3.0,528.3
488,dc1_03,high,2,77,739.2007,3.0095,742.2102,1.7398,sc1,743.95,dur2,0.0471,743.9971,0.2468,744.2439,4.0088,748.2645,1.5165,54.0,0.0,233.0,749.7927,1.3402,2.0,207.6
489,dc1_03,high,2,78,751.1329,1.011,752.1439,1.7399,sc3,753.8838,dur1,0.0117,753.8955,0.2469,754.1424,2.0103,756.1644,1.5165,41.0,1.0,508.1,757.6927,1.3402,1.0,214.7
490,dc1_03,high,2,79,759.0329,1.011,760.0439,1.7398,sn3,761.7837,dur1,0.0118,761.7955,0.2469,762.0424,2.0102,764.0644,1.5165,54.0,0.0,215.4,765.5927,1.3401,1.0,137.1
491,dc1_04,low,1,1,0.0077,1.0111,1.0188,1.7398,mn7,2.7586,dur1,0.0118,2.7704,0.2469,3.0173,6.0072,9.0363,1.5165,41.0,1.0,393.8,10.5645,1.4813,2.0,362.5
492,dc1_04,low,1,2,12.0576,3.0095,15.0671,1.7398,mc7,16.8069,dur2,0.0471,16.854,0.2468,17.1008,2.0103,19.1228,1.5166,51.0,0.0,240.3,20.6511,1.446,2.0,175.2
493,dc1_04,low,1,4,31.1609,2.0103,33.1712,1.7398,mc3,34.911,dur1,0.0118,34.9228,0.2469,35.1697,2.0102,37.1917,1.5165,51.0,0.0,430.4,38.7199,1.4813,2.0,555.3
494,dc1_04,low,1,5,40.2129,2.0103,42.2232,1.7399,sn9,43.9631,dur2,0.047,44.0101,0.2469,44.257,2.0102,46.279,1.5165,41.0,1.0,230.2,47.8072,1.446,2.0,202.3
495,dc1_04,low,1,6,49.265,1.011,50.276,1.7399,sn7,52.0159,dur2,0.047,52.0629,0.2469,52.3098,6.0072,58.3288,1.5165,41.0,1.0,275.5,59.857,1.446,2.0,285.4
496,dc1_04,low,1,7,61.3148,1.011,62.3258,1.7399,mn1,64.0657,dur3,0.0823,64.148,0.2468,64.3948,2.0103,66.4168,1.5165,41.0,1.0,260.8,67.9451,1.4107,2.0,315.2
497,dc1_04,low,1,8,69.3676,2.0102,71.3778,1.7399,sc7,73.1177,dur1,0.0118,73.1295,0.2468,73.3763,4.0088,77.3969,1.5165,51.0,0.0,403.0,78.9251,1.4813,2.0,522.5
498,dc1_04,low,1,9,80.4181,3.0095,83.4276,1.7399,sn7,85.1675,dur1,0.0118,85.1793,0.2468,85.4261,2.0103,87.4482,1.5165,41.0,1.0,753.2,88.9764,1.4813,2.0,262.1
499,dc1_04,low,1,11,99.5215,3.0095,102.531,1.7398,mc9,104.2708,dur1,0.0118,104.2826,0.2469,104.5295,2.0102,106.5515,1.5165,51.0,0.0,412.7,108.0798,1.4812,1.0,120.5
500,dc1_04,low,1,12,109.5728,1.011,110.5838,1.7398,mn1,112.3236,dur2,0.0471,112.3707,0.2468,112.6175,6.0073,118.6366,1.5165,54.0,0.0,259.2,120.1648,1.446,2.0,222.3
501,dc1_04,low,1,13,121.6226,1.011,122.6336,1.7398,mn3,124.3734,dur1,0.0118,124.3852,0.2469,124.6321,2.0102,126.6541,1.5165,54.0,0.0,261.6,128.1823,1.4813,2.0,219.1
502,dc1_04,low,1,14,129.6753,2.0103,131.6856,1.7399,sn1,133.4255,dur1,0.0117,133.4372,0.2469,133.6841,6.0073,139.7031,1.5165,54.0,0.0,501.4,141.2314,1.4812,2.0,472.6
503,dc1_04,low,1,15,142.7244,2.0103,144.7347,1.7398,sc9,146.4745,dur4,0.1529,146.6274,0.2468,146.8742,2.0103,148.8962,1.5166,44.0,1.0,294.2,150.4245,1.3402,4.0,236.7
504,dc1_04,low,1,16,151.7647,1.011,152.7757,1.7399,mn7,154.5156,dur2,0.047,154.5626,0.2469,154.8095,4.0087,158.83,1.5165,41.0,1.0,334.7,160.3582,1.3402,1.0,217.6
505,dc1_04,low,1,17,161.6984,3.0095,164.7079,1.7399,sc1,166.4478,dur1,0.0118,166.4596,0.2468,166.7064,2.0103,168.7285,1.5165,44.0,1.0,206.0,170.2567,1.3402,2.0,157.1
506,dc1_04,low,1,19,180.4961,1.011,181.5071,1.7399,sc9,183.247,dur3,0.0823,183.3293,0.2469,183.5762,2.0102,185.5982,1.5165,51.0,0.0,311.3,187.1264,1.3402,2.0,163.9
507,dc1_04,low,1,20,188.4666,1.011,189.4776,1.7399,sn7,191.2175,dur4,0.1528,191.3703,0.2469,191.6172,2.0103,193.6392,1.5165,41.0,1.0,277.1,195.1675,1.3402,4.0,203.2
508,dc1_04,low,1,21,196.5077,2.0102,198.5179,1.7399,sc9,200.2578,dur1,0.0117,200.2695,0.2469,200.5164,2.0103,202.5384,1.5165,51.0,0.0,229.8,204.0667,1.3402,2.0,218.2
509,dc1_04,low,1,22,205.4069,1.011,206.4179,1.7398,mn1,208.1577,dur1,0.0118,208.1695,0.2469,208.4164,2.0102,210.4384,1.5165,41.0,1.0,182.8,211.9667,1.3401,2.0,314.1
510,dc1_04,low,1,24,227.2023,3.0095,230.2118,1.7399,mc1,231.9517,dur2,0.047,231.9987,0.2469,232.2456,2.0103,234.2676,1.5165,51.0,0.0,319.2,235.7959,1.3401,1.0,187.9
511,dc1_04,low,1,25,237.136,2.0103,239.1463,1.7399,sn9,240.8862,dur4,0.1528,241.039,0.2469,241.2859,2.0102,243.3079,1.5165,41.0,1.0,222.7,244.8362,1.3401,4.0,276.7
512,dc1_04,low,1,26,246.1763,3.0095,249.1858,1.7399,mc7,250.9257,dur4,0.1528,251.0785,0.2469,251.3254,2.0103,253.3474,1.5165,44.0,1.0,205.4,254.8757,1.3402,4.0,191.9
513,dc1_04,low,1,29,277.0121,3.0095,280.0216,1.7398,sn1,281.7614,dur2,0.0471,281.8085,0.2468,282.0553,2.0103,284.0774,1.5165,41.0,1.0,164.6,285.6056,1.3402,2.0,252.0
514,dc1_04,low,1,30,286.9458,2.0103,288.9561,1.7398,sc1,290.6959,dur2,0.0471,290.743,0.2468,290.9898,2.0103,293.0119,1.5165,51.0,0.0,483.7,294.5401,1.3402,2.0,559.3
515,dc1_04,low,1,31,295.8803,1.011,296.8913,1.7399,sn9,298.6312,dur1,0.0117,298.6429,0.2469,298.8898,2.0103,300.9118,1.5165,54.0,0.0,227.2,302.4401,1.3402,2.0,221.5
516,dc1_04,low,1,32,303.7803,3.0095,306.7898,1.7398,mc1,308.5296,dur4,0.1529,308.6825,0.2468,308.9293,2.0103,310.9514,1.5165,44.0,1.0,237.3,312.4796,1.3402,4.0,213.0
517,dc1_04,low,1,33,313.8198,3.0095,316.8293,1.7399,mn9,318.5692,dur2,0.047,318.6162,0.2469,318.8631,2.0102,320.8851,1.5165,54.0,0.0,421.3,322.4134,1.3401,2.0,217.2
518,dc1_04,low,1,35,333.652,2.0103,335.6623,1.7398,sc3,337.4021,dur2,0.0471,337.4492,0.2468,337.696,2.0103,339.718,1.5166,44.0,1.0,301.4,341.2463,1.3402,2.0,224.4
519,dc1_04,low,1,36,342.5865,1.011,343.5975,1.7399,sc7,345.3374,dur4,0.1528,345.4902,0.2469,345.7371,2.0102,347.7591,1.5165,44.0,1.0,283.1,349.2874,1.3401,4.0,263.7
520,dc1_04,low,1,37,350.6275,3.0095,353.637,1.7399,sn3,355.3769,dur1,0.0118,355.3887,0.2468,355.6355,6.0073,361.6546,1.5165,54.0,0.0,326.3,363.1828,1.3402,1.0,469.7
521,dc1_04,low,1,38,364.523,2.0103,366.5333,1.7398,mc1,368.2731,dur1,0.0118,368.2849,0.2469,368.5318,2.0102,370.5538,1.5165,44.0,1.0,416.3,372.082,1.3402,2.0,648.9
522,dc1_04,low,1,39,373.4222,2.0103,375.4325,1.7399,mc1,377.1724,dur3,0.0822,377.2546,0.2469,377.5015,4.0088,381.522,1.5165,44.0,1.0,368.1,383.0503,1.3402,4.0,404.8
523,dc1_04,low,1,40,384.3905,3.0095,387.4,1.7399,sn3,389.1399,dur3,0.0823,389.2222,0.2468,389.469,2.0103,391.491,1.5165,41.0,1.0,258.9,393.0193,1.3402,4.0,270.3
524,dc1_04,low,1,41,394.3595,1.011,395.3705,1.7399,mc9,397.1104,dur2,0.047,397.1574,0.2469,397.4043,2.0102,399.4263,1.5165,51.0,0.0,243.5,400.9545,1.3402,2.0,434.8
525,dc1_04,low,1,42,402.2947,3.0095,405.3042,1.7399,mc3,407.0441,dur2,0.047,407.0911,0.2469,407.338,2.0103,409.36,1.5165,51.0,0.0,358.8,410.8883,1.3402,1.0,236.6
526,dc1_04,low,1,44,422.1269,2.0103,424.1372,1.7399,mn7,425.8771,dur4,0.1528,426.0299,0.2469,426.2768,6.0072,432.2958,1.5165,41.0,1.0,230.2,433.824,1.3402,4.0,317.9
527,dc1_04,low,1,47,452.9626,2.0103,454.9729,1.7399,sn7,456.7128,dur3,0.0823,456.7951,0.2469,457.042,6.0072,463.061,1.5165,41.0,1.0,355.9,464.5892,1.3402,2.0,380.5
528,dc1_04,low,1,48,465.9294,2.0103,467.9397,1.7398,mn3,469.6795,dur2,0.0471,469.7266,0.2468,469.9734,2.0103,471.9955,1.5165,54.0,0.0,247.3,473.5237,1.3402,3.0,210.5
529,dc1_04,low,1,49,474.8639,3.0095,477.8734,1.7399,sc3,479.6133,dur4,0.1528,479.7661,0.2469,480.013,4.0087,484.0335,1.5165,44.0,1.0,253.5,485.5618,1.3401,4.0,323.5
530,dc1_04,low,1,50,486.9019,3.0095,489.9114,1.7399,sn9,491.6513,dur3,0.0823,491.7336,0.2469,491.9805,2.0102,494.0025,1.5165,41.0,1.0,629.5,495.5308,1.3401,4.0,229.7
531,dc1_04,low,1,51,496.8709,3.0096,499.8805,1.7398,sc9,501.6203,dur2,0.047,501.6673,0.2469,501.9142,2.0103,503.9362,1.5165,44.0,1.0,574.8,505.4645,1.3402,1.0,324.8
532,dc1_04,low,1,52,506.8047,2.0102,508.8149,1.7399,sn3,510.5548,dur2,0.047,510.6018,0.2469,510.8487,2.0103,512.8707,1.5165,41.0,1.0,260.9,514.399,1.3402,1.0,906.5
533,dc1_04,low,1,53,515.7392,3.0095,518.7487,1.7399,mc7,520.4886,dur3,0.0822,520.5708,0.2469,520.8177,4.0088,524.8382,1.5165,51.0,0.0,361.2,526.3665,1.3402,1.0,306.8
534,dc1_04,low,1,54,527.7067,2.0102,529.7169,1.7399,sn1,531.4568,dur4,0.1528,531.6096,0.2469,531.8565,2.0103,533.8785,1.5165,41.0,1.0,594.9,535.4068,1.3402,4.0,531.9
535,dc1_04,low,1,55,536.747,1.011,537.758,1.7398,mn3,539.4978,dur3,0.0823,539.5801,0.2469,539.827,2.0103,541.849,1.5165,41.0,1.0,643.4,543.3773,1.3402,4.0,554.7
536,dc1_04,low,1,56,544.7175,2.0102,546.7277,1.7399,mc3,548.4676,dur3,0.0823,548.5499,0.2469,548.7968,2.0102,550.8188,1.5165,44.0,1.0,339.3,552.347,1.3402,4.0,280.6
537,dc1_04,low,1,57,553.6872,1.011,554.6982,1.7399,sc1,556.4381,dur4,0.1528,556.5909,0.2469,556.8378,4.0088,560.8583,1.5165,44.0,1.0,578.1,562.3866,1.3402,4.0,477.2
538,dc1_04,low,1,58,563.7268,1.011,564.7378,1.7398,sn3,566.4776,dur4,0.1529,566.6305,0.2468,566.8773,2.0103,568.8994,1.5165,54.0,0.0,966.8,570.4276,1.3402,2.0,411.6
539,dc1_04,low,1,60,581.6663,3.0095,584.6758,1.7399,mn1,586.4157,dur4,0.1528,586.5685,0.2469,586.8154,6.0072,592.8344,1.5165,41.0,1.0,234.3,594.3626,1.3402,4.0,313.6
540,dc1_04,low,1,61,595.7028,2.0103,597.7131,1.7398,mn9,599.4529,dur4,0.1529,599.6058,0.2468,599.8526,2.0103,601.8747,1.5165,41.0,1.0,252.4,603.4029,1.3402,4.0,266.8
541,dc1_04,low,1,62,604.7431,3.0095,607.7526,1.7399,mc3,609.4925,dur4,0.1528,609.6453,0.2469,609.8922,2.0102,611.9142,1.5165,44.0,1.0,305.7,613.4425,1.3401,4.0,226.5
542,dc1_04,low,1,63,614.7826,1.011,615.7936,1.7399,sc3,617.5335,dur1,0.0118,617.5453,0.2469,617.7922,2.0102,619.8142,1.5165,51.0,0.0,212.6,621.3424,1.3402,2.0,209.7
543,dc1_04,low,1,64,622.6826,3.0095,625.6921,1.7399,sc7,627.432,dur2,0.047,627.479,0.2469,627.7259,2.0102,629.7479,1.5165,51.0,0.0,380.2,631.2762,1.3401,1.0,271.3
544,dc1_04,low,1,65,632.6163,2.0103,634.6266,1.7399,sc3,636.3665,dur3,0.0823,636.4488,0.2468,636.6956,2.0103,638.7177,1.5165,51.0,0.0,237.6,640.2459,1.3402,3.0,427.3
545,dc1_04,low,1,66,641.5861,1.011,642.5971,1.7399,mn7,644.337,dur3,0.0823,644.4193,0.2468,644.6661,2.0103,646.6882,1.5165,41.0,1.0,287.3,648.2164,1.3402,2.0,402.6
546,dc1_04,low,1,68,657.4566,3.0095,660.4661,1.7398,mn3,662.2059,dur4,0.1529,662.3588,0.2469,662.6057,2.0102,664.6277,1.5165,41.0,1.0,510.7,666.1559,1.3402,1.0,513.6
547,dc1_04,low,1,69,667.4961,1.011,668.5071,1.7399,mc9,670.247,dur3,0.0823,670.3293,0.2469,670.5762,4.0087,674.5967,1.5165,51.0,0.0,409.9,676.1249,1.3402,2.0,356.9
548,dc1_04,low,1,71,685.3651,2.0102,687.3753,1.7399,mn9,689.1152,dur1,0.0118,689.127,0.2468,689.3738,2.0103,691.3959,1.5165,41.0,1.0,369.6,692.9241,1.3402,1.0,357.4
549,dc1_04,low,1,74,714.0612,2.0103,716.0715,1.7399,mc9,717.8114,dur4,0.1528,717.9642,0.2469,718.2111,2.0102,720.2331,1.5165,44.0,1.0,294.9,721.7613,1.3402,4.0,371.4
550,dc1_04,low,1,75,723.1015,2.0103,725.1118,1.7399,sc7,726.8517,dur3,0.0822,726.9339,0.2469,727.1808,2.0103,729.2028,1.5165,44.0,1.0,355.1,730.7311,1.3402,2.0,843.5
551,dc1_04,low,1,77,739.9712,3.0096,742.9808,1.7398,mn9,744.7206,dur3,0.0823,744.8029,0.2469,745.0498,2.0102,747.0718,1.5165,54.0,0.0,765.5,748.6001,1.3401,2.0,1162.2
552,dc1_04,low,1,78,749.9402,2.0103,751.9505,1.7399,mc7,753.6904,dur1,0.0117,753.7021,0.2469,753.949,2.0103,755.971,1.5165,44.0,1.0,630.8,757.4993,1.3402,2.0,598.9
553,dc1_04,low,1,79,758.8395,3.0095,761.849,1.7398,sn1,763.5888,dur3,0.0823,763.6711,0.2469,763.918,2.0103,765.94,1.5165,54.0,0.0,588.4,767.4683,1.3402,2.0,346.8
554,dc1_04,low,2,1,0.0098,2.0102,2.02,1.7399,sc1,3.7599,dur4,0.1528,3.9127,0.2469,4.1596,2.0103,6.1816,1.5165,51.0,0.0,632.2,7.7099,1.3402,2.0,204.7
555,dc1_04,low,2,3,21.9463,1.011,22.9573,1.7399,mn7,24.6972,dur2,0.047,24.7442,0.2469,24.9911,2.0102,27.0131,1.5165,41.0,1.0,233.3,28.5414,1.3401,2.0,196.5
556,dc1_04,low,2,4,29.8815,3.0095,32.891,1.7399,sn3,34.6309,dur1,0.0118,34.6427,0.2468,34.8895,2.0103,36.9116,1.5165,41.0,1.0,314.4,38.4398,1.3402,2.0,210.4
557,dc1_04,low,2,5,39.78,3.0095,42.7895,1.7399,mn1,44.5294,dur4,0.1528,44.6822,0.2469,44.9291,2.0102,46.9511,1.5165,51.0,1.0,1340.5,48.4794,1.3401,2.0,321.6
558,dc1_04,low,2,7,57.7195,2.0103,59.7298,1.7398,mc3,61.4696,dur4,0.1529,61.6225,0.2468,61.8693,6.0073,67.8884,1.5165,44.0,1.0,327.9,69.4166,1.3402,4.0,295.4
559,dc1_04,low,2,8,70.7568,2.0103,72.7671,1.7398,sc1,74.5069,dur2,0.047,74.5539,0.2469,74.8008,2.0103,76.8228,1.5166,44.0,1.0,257.2,78.3511,1.3402,2.0,209.1
560,dc1_04,low,2,9,79.6913,3.0095,82.7008,1.7399,sc7,84.4407,dur4,0.1528,84.5935,0.2469,84.8404,2.0102,86.8624,1.5165,44.0,1.0,345.0,88.3906,1.3402,2.0,961.6
561,dc1_04,low,2,11,97.6308,2.0102,99.641,1.7399,mc9,101.3809,dur3,0.0823,101.4632,0.2469,101.7101,2.0102,103.7321,1.5165,44.0,1.0,281.7,105.2604,1.3401,4.0,737.3
562,dc1_04,low,2,12,106.6005,2.0103,108.6108,1.7399,mn9,110.3507,dur4,0.1528,110.5035,0.2469,110.7504,2.0102,112.7724,1.5165,41.0,1.0,226.3,114.3007,1.3401,4.0,219.0
563,dc1_04,low,2,13,115.6408,3.0095,118.6503,1.7399,mc9,120.3902,dur1,0.0118,120.402,0.2468,120.6488,2.0103,122.6709,1.5165,44.0,1.0,409.3,124.1991,1.3402,2.0,199.4
564,dc1_04,low,2,14,125.5393,2.0103,127.5496,1.7398,sc3,129.2894,dur4,0.1529,129.4423,0.2468,129.6891,2.0103,131.7111,1.5166,44.0,1.0,271.9,133.2394,1.3402,4.0,214.1
565,dc1_04,low,2,15,134.5796,3.0095,137.5891,1.7399,sn3,139.329,dur4,0.1528,139.4818,0.2469,139.7287,2.0102,141.7507,1.5165,41.0,1.0,379.6,143.279,1.3401,4.0,198.4
566,dc1_04,low,2,16,144.6191,2.0103,146.6294,1.7399,mc9,148.3693,dur2,0.047,148.4163,0.2469,148.6632,2.0102,150.6852,1.5165,51.0,0.0,255.8,152.2134,1.3402,3.0,299.0
567,dc1_04,low,2,17,153.5536,2.0103,155.5639,1.7398,mn1,157.3037,dur1,0.0118,157.3155,0.2469,157.5624,4.0087,161.5829,1.5165,41.0,1.0,244.3,163.1112,1.3401,1.0,188.8
568,dc1_04,low,2,18,164.4513,3.0095,167.4608,1.7399,mc1,169.2007,dur4,0.1528,169.3535,0.2469,169.6004,4.0088,173.6209,1.5165,44.0,1.0,251.6,175.1492,1.3402,4.0,598.7
569,dc1_04,low,2,19,176.4894,2.0102,178.4996,1.7399,mn1,180.2395,dur2,0.047,180.2865,0.2469,180.5334,2.0103,182.5554,1.5165,41.0,1.0,968.2,184.0837,1.3402,3.0,692.6
570,dc1_04,low,2,20,185.4239,2.0102,187.4341,1.7399,mn3,189.174,dur1,0.0118,189.1858,0.2468,189.4326,2.0103,191.4546,1.5165,41.0,1.0,280.3,192.9829,1.3402,2.0,771.2
571,dc1_04,low,2,21,194.3231,1.011,195.3341,1.7399,mc7,197.074,dur4,0.1528,197.2268,0.2469,197.4737,2.0102,199.4957,1.5165,51.0,0.0,454.1,201.0239,1.3402,2.0,171.8
572,dc1_04,low,2,22,202.3641,1.011,203.3751,1.7399,mn3,205.115,dur2,0.047,205.162,0.2469,205.4089,4.0088,209.4294,1.5165,41.0,1.0,274.7,210.9577,1.3401,2.0,372.6
573,dc1_04,low,2,23,212.2978,2.0103,214.3081,1.7399,mn9,216.048,dur3,0.0823,216.1303,0.2468,216.3771,2.0103,218.3992,1.5165,41.0,1.0,207.1,219.9274,1.3402,4.0,248.5
574,dc1_04,low,2,24,221.2676,3.0095,224.2771,1.7399,sn1,226.017,dur1,0.0117,226.0287,0.2469,226.2756,4.0088,230.2961,1.5165,41.0,1.0,238.5,231.8244,1.3402,2.0,315.9
575,dc1_04,low,2,26,244.0623,1.011,245.0733,1.7399,sn7,246.8132,dur3,0.0823,246.8955,0.2468,247.1423,2.0103,249.1644,1.5165,41.0,1.0,233.8,250.6926,1.3402,4.0,200.4
576,dc1_04,low,2,27,252.0328,1.011,253.0438,1.7399,sn1,254.7837,dur3,0.0823,254.866,0.2468,255.1128,6.0073,261.1319,1.5165,41.0,1.0,312.4,262.6601,1.3402,3.0,389.5
577,dc1_04,low,2,28,264.0003,3.0095,267.0098,1.7399,mn1,268.7497,dur3,0.0823,268.832,0.2469,269.0789,2.0102,271.1009,1.5165,41.0,1.0,390.9,272.6291,1.3402,3.0,273.1
578,dc1_04,low,2,29,273.9693,1.011,274.9803,1.7399,mc3,276.7202,dur2,0.047,276.7672,0.2469,277.0141,2.0102,279.0361,1.5165,44.0,1.0,392.2,280.5644,1.3401,2.0,246.0
579,dc1_04,low,2,30,281.9045,1.011,282.9155,1.7399,sc9,284.6554,dur4,0.1529,284.8083,0.2468,285.0551,6.0073,291.0741,1.5166,44.0,1.0,312.8,292.6024,1.3402,4.0,321.7
580,dc1_04,low,2,31,293.9426,1.011,294.9536,1.7399,sc1,296.6935,dur3,0.0823,296.7758,0.2468,297.0226,2.0103,299.0446,1.5166,51.0,0.0,339.2,300.5729,1.3402,2.0,270.9
581,dc1_04,low,2,33,311.8468,1.011,312.8578,1.7399,sn3,314.5977,dur3,0.0823,314.68,0.2469,314.9269,4.0087,318.9474,1.5165,41.0,1.0,259.1,320.4757,1.3401,4.0,340.0
582,dc1_04,low,2,34,321.8158,2.0103,323.8261,1.7399,sn9,325.566,dur2,0.047,325.613,0.2469,325.8599,2.0102,327.8819,1.5165,41.0,1.0,458.1,329.4101,1.3402,3.0,387.8
583,dc1_04,low,2,37,349.548,3.0095,352.5575,1.7399,sn7,354.2974,dur1,0.0117,354.3091,0.2469,354.556,4.0088,358.5765,1.5165,41.0,1.0,289.2,360.1048,1.3402,1.0,185.6
584,dc1_04,low,2,38,361.445,3.0095,364.4545,1.7399,sc1,366.1944,dur1,0.0117,366.2061,0.2469,366.453,2.0102,368.475,1.5165,51.0,0.0,392.4,370.0033,1.3401,2.0,246.1
585,dc1_04,low,2,39,371.3434,3.0096,374.353,1.7398,mc1,376.0928,dur3,0.0823,376.1751,0.2469,376.422,2.0103,378.444,1.5165,44.0,1.0,210.8,379.9723,1.3401,2.0,206.7
586,dc1_04,low,2,41,394.2087,2.0102,396.2189,1.7399,mn7,397.9588,dur1,0.0118,397.9706,0.2468,398.2174,2.0103,400.2395,1.5165,54.0,0.0,284.3,401.7677,1.3402,2.0,243.0
587,dc1_04,low,2,42,403.1079,3.0095,406.1174,1.7399,sc9,407.8573,dur3,0.0823,407.9396,0.2468,408.1864,2.0103,410.2085,1.5165,44.0,1.0,840.9,411.7367,1.3402,4.0,335.9
588,dc1_04,low,2,43,413.0769,2.0103,415.0872,1.7398,sc3,416.827,dur1,0.0118,416.8388,0.2469,417.0857,2.0102,419.1077,1.5165,44.0,1.0,336.5,420.6359,1.3402,2.0,306.4
589,dc1_04,low,2,45,430.8753,1.011,431.8863,1.7399,mc9,433.6262,dur4,0.1528,433.779,0.2469,434.0259,4.0088,438.0464,1.5165,44.0,1.0,318.9,439.5747,1.3402,4.0,205.7
590,dc1_04,low,2,46,440.9149,1.011,441.9259,1.7399,sc9,443.6658,dur1,0.0117,443.6775,0.2469,443.9244,2.0102,445.9464,1.5165,51.0,0.0,284.3,447.4747,1.3401,2.0,169.6
591,dc1_04,low,2,47,448.8148,1.011,449.8258,1.7399,mn7,451.5657,dur3,0.0823,451.648,0.2469,451.8949,2.0102,453.9169,1.5165,41.0,1.0,349.1,455.4452,1.3401,4.0,172.3
592,dc1_04,low,2,48,456.7853,2.0103,458.7956,1.7399,mc1,460.5355,dur1,0.0117,460.5472,0.2469,460.7941,2.0103,462.8161,1.5165,51.0,0.0,499.5,464.3444,1.3402,3.0,708.7
593,dc1_04,low,2,49,465.6846,1.011,466.6956,1.7398,sn1,468.4354,dur2,0.0471,468.4825,0.2468,468.7293,2.0103,470.7514,1.5165,41.0,1.0,619.5,472.2796,1.3402,2.0,277.5
594,dc1_04,low,2,50,473.6198,3.0095,476.6293,1.7399,sn7,478.3692,dur4,0.1528,478.522,0.2469,478.7689,2.0102,480.7909,1.5165,41.0,1.0,533.4,482.3192,1.3401,3.0,429.8
595,dc1_04,low,2,51,483.6593,3.0095,486.6688,1.7399,mc7,488.4087,dur3,0.0823,488.491,0.2469,488.7379,2.0102,490.7599,1.5165,44.0,1.0,305.5,492.2882,1.3401,4.0,199.9
596,dc1_04,low,2,52,493.6283,2.0103,495.6386,1.7399,mn3,497.3785,dur4,0.1528,497.5313,0.2469,497.7782,6.0072,503.7972,1.5165,41.0,1.0,300.8,505.3255,1.3401,2.0,255.3
597,dc1_04,low,2,54,518.5626,2.0103,520.5729,1.7398,sn9,522.3127,dur1,0.0118,522.3245,0.2469,522.5714,6.0072,528.5904,1.5165,41.0,1.0,367.9,530.1186,1.3402,2.0,361.2
598,dc1_04,low,2,55,531.4588,3.0095,534.4683,1.7399,mn7,536.2082,dur4,0.1528,536.361,0.2469,536.6079,2.0103,538.6299,1.5165,41.0,1.0,438.4,540.1582,1.3402,4.0,428.9
599,dc1_04,low,2,56,541.4984,2.0102,543.5086,1.7399,sn9,545.2485,dur3,0.0823,545.3308,0.2469,545.5777,6.0072,551.5967,1.5165,41.0,1.0,238.8,553.1249,1.3402,4.0,240.8
600,dc1_04,low,2,57,554.4651,2.0103,556.4754,1.7399,sc7,558.2153,dur1,0.0117,558.227,0.2469,558.4739,2.0102,560.4959,1.5165,51.0,0.0,250.8,562.0242,1.3401,3.0,269.9
601,dc1_04,low,2,59,571.2643,1.011,572.2753,1.7399,sc7,574.0152,dur2,0.047,574.0622,0.2469,574.3091,6.0072,580.3281,1.5165,51.0,0.0,331.0,581.8564,1.3401,2.0,327.2
602,dc1_04,low,2,60,583.1965,2.0103,585.2068,1.7399,mn3,586.9467,dur3,0.0823,587.029,0.2468,587.2758,2.0103,589.2979,1.5165,41.0,1.0,402.1,590.8261,1.3402,4.0,234.9
603,dc1_04,low,2,61,592.1663,3.0095,595.1758,1.7399,mc7,596.9157,dur2,0.047,596.9627,0.2469,597.2096,2.0102,599.2316,1.5165,51.0,0.0,436.7,600.7599,1.3401,2.0,997.1
604,dc1_04,low,2,63,610.0,1.011,611.011,1.7399,mc1,612.7509,dur2,0.047,612.7979,0.2469,613.0448,4.0087,617.0653,1.5165,51.0,0.0,265.3,618.5936,1.3401,3.0,355.1
605,dc1_04,low,2,64,619.9337,1.011,620.9447,1.7399,mn9,622.6846,dur2,0.047,622.7316,0.2469,622.9785,2.0103,625.0005,1.5165,41.0,1.0,279.5,626.5288,1.3402,2.0,246.0
606,dc1_04,low,2,65,627.869,2.0102,629.8792,1.7399,sn3,631.6191,dur2,0.047,631.6661,0.2469,631.913,4.0088,635.9335,1.5165,41.0,1.0,268.1,637.4618,1.3402,1.0,373.8
607,dc1_04,low,2,67,647.7012,2.0102,649.7114,1.7399,sn1,651.4513,dur4,0.1528,651.6041,0.2469,651.851,2.0103,653.873,1.5165,41.0,1.0,240.8,655.4013,1.3402,4.0,257.1
